stimulus,condition,corr_resp,trials.thisRepN,trials.thisTrialN,trials.thisN,trials.thisIndex,thisRow.t,notes,instructions.started,text_2.started,instructions.stopped,trial.started,fixation.started,text.started,key_resp.started,fixation.stopped,trial.stopped,key_resp.keys,key_resp.corr,key_resp.rt,key_resp.duration,thank_you.started,text_3.started,thank_you.stopped,participant,date,expName,psychopyVersion,frameRate,expStart,
,,,,,,,,,0.018352100159972906,0.030668199993669987,10.016566900070757,,,,,,,,,,,,,,nirja,2024-12-02_19h17.28.213,solo_project,2024.1.5,None,2024-12-02 19h17.46.526384 +0530,
heritage  ,control,y,0,0,0,2,10.05707240011543,,,,,10.040825300151482,10.05707240011543,10.52491440018639,10.52491440018639,10.592119400156662,11.63859590003267,y,1,1.0999976999592036,None,,,,nirja,2024-12-02_19h17.28.213,solo_project,2024.1.5,None,2024-12-02 19h17.46.526384 +0530,
repifion,ccrl,n,0,1,1,17,11.65924230008386,,,,,11.63992950017564,11.65924230008386,12.161869200179353,12.161869200179353,12.161869200179353,12.771654000040144,n,1,0.6030160000082105,None,,,,nirja,2024-12-02_19h17.28.213,solo_project,2024.1.5,None,2024-12-02 19h17.46.526384 +0530,
qualify  ,control,y,0,2,2,32,12.79344330006279,,,,,12.773185400059447,12.79344330006279,13.293942800024524,13.293942800024524,13.31229820009321,13.850906000006944,y,1,0.555099899880588,None,,,,nirja,2024-12-02_19h17.28.213,solo_project,2024.1.5,None,2024-12-02 19h17.46.526384 +0530,
beloved  ,control,y,0,3,3,20,13.87784540001303,,,,,13.851555800065398,13.87784540001303,14.364683300023898,14.364683300023898,14.381168600171804,15.122354000108317,n,0,0.727439499925822,None,,,,nirja,2024-12-02_19h17.28.213,solo_project,2024.1.5,None,2024-12-02 19h17.46.526384 +0530,
menowy,ccrl,n,0,4,4,15,15.146554500097409,,,,,15.123688800027594,15.146554500097409,15.630866199964657,15.630866199964657,15.663454400142655,16.37372749997303,n,1,0.7182796997949481,None,,,,nirja,2024-12-02_19h17.28.213,solo_project,2024.1.5,None,2024-12-02 19h17.46.526384 +0530,
provide  ,control,y,0,5,5,24,16.397916699992493,,,,,16.375108000123873,16.397916699992493,16.882810699986294,16.882810699986294,16.914815100142732,17.62518660002388,y,1,0.7264185999520123,None,,,,nirja,2024-12-02_19h17.28.213,solo_project,2024.1.5,None,2024-12-02 19h17.46.526384 +0530,
density  ,control,y,0,6,6,10,17.649311900138855,,,,,17.626499500125647,17.649311900138855,18.14949810015969,18.14949810015969,18.16763889999129,18.66017649997957,y,1,0.5088846001308411,None,,,,nirja,2024-12-02_19h17.28.213,solo_project,2024.1.5,None,2024-12-02 19h17.46.526384 +0530,
saline  ,control,y,0,7,7,38,18.68346570013091,,,,,18.661507100099698,18.68346570013091,19.168891000095755,19.168891000095755,19.18509260006249,19.822198000038043,n,0,0.6425193999893963,None,,,,nirja,2024-12-02_19h17.28.213,solo_project,2024.1.5,None,2024-12-02 19h17.46.526384 +0530,
probice,ccrl,n,0,8,8,25,19.836832800181583,,,,,19.82272980012931,19.836832800181583,20.336746799992397,20.336746799992397,20.336746799992397,21.060390800004825,n,1,0.718717799987644,None,,,,nirja,2024-12-02_19h17.28.213,solo_project,2024.1.5,None,2024-12-02 19h17.46.526384 +0530,
delahe,ccrl,n,0,9,9,13,21.085899600060657,,,,,21.061601100023836,21.085899600060657,21.571142800152302,21.571142800152302,21.58841560012661,22.213220100151375,n,1,0.6334562997799367,None,,,,nirja,2024-12-02_19h17.28.213,solo_project,2024.1.5,None,2024-12-02 19h17.46.526384 +0530,
conbicer,ccrl,n,0,10,10,5,22.237364400178194,,,,,22.214601200073957,22.237364400178194,22.722836500033736,22.722836500033736,22.739500800147653,23.299249000148848,n,1,0.5718344999477267,None,,,,nirja,2024-12-02_19h17.28.213,solo_project,2024.1.5,None,2024-12-02 19h17.46.526384 +0530,
popular  ,control,y,0,11,11,34,23.321789200184867,,,,,23.300556800095364,23.321789200184867,23.822476800065488,23.822476800065488,23.85599540011026,24.5276188000571,y,1,0.6766139999963343,None,,,,nirja,2024-12-02_19h17.28.213,solo_project,2024.1.5,None,2024-12-02 19h17.46.526384 +0530,
debate  ,control,y,0,12,12,12,24.541299000149593,,,,,24.528282799990848,24.541299000149593,25.041333600180224,25.041333600180224,25.041333600180224,25.63180089998059,y,1,0.5844660000875592,None,,,,nirja,2024-12-02_19h17.28.213,solo_project,2024.1.5,None,2024-12-02 19h17.46.526384 +0530,
bewoted,ccrl,n,0,13,13,21,25.65771990013309,,,,,25.63263180013746,25.65771990013309,26.142543300054967,26.142543300054967,26.159209999954328,26.750555200036615,n,1,0.5776694999076426,None,,,,nirja,2024-12-02_19h17.28.213,solo_project,2024.1.5,None,2024-12-02 19h17.46.526384 +0530,
posity,ccrl,n,0,14,14,7,26.775574899977073,,,,,26.75172489997931,26.775574899977073,27.27651820005849,27.27651820005849,27.29438029997982,27.953356300015002,y,0,0.6644484999123961,None,,,,nirja,2024-12-02_19h17.28.213,solo_project,2024.1.5,None,2024-12-02 19h17.46.526384 +0530,
religion  ,control,y,0,15,15,16,27.977020800113678,,,,,27.954547100001946,27.977020800113678,28.47826200001873,28.47826200001873,28.510979200014845,29.104117200011387,y,1,0.5948308000806719,None,,,,nirja,2024-12-02_19h17.28.213,solo_project,2024.1.5,None,2024-12-02 19h17.46.526384 +0530,
samite,ccrl,n,0,16,16,39,29.128516500117257,,,,,29.1054657001514,29.128516500117257,29.61292380001396,29.61292380001396,29.629997899988666,30.272738100029528,n,1,0.652197299990803,None,,,,nirja,2024-12-02_19h17.28.213,solo_project,2024.1.5,None,2024-12-02 19h17.46.526384 +0530,
rapidly  ,control,y,0,17,17,18,30.296228799968958,,,,,30.27410800009966,30.296228799968958,30.782154700020328,30.782154700020328,30.813680100021884,31.438999500125647,y,1,0.6511325999163091,None,,,,nirja,2024-12-02_19h17.28.213,solo_project,2024.1.5,None,2024-12-02 19h17.46.526384 +0530,
retire  ,control,y,0,18,18,8,31.46428079996258,,,,,31.4401776001323,31.46428079996258,31.96464979997836,31.96464979997836,31.982941300142556,32.70883490005508,y,1,0.7348076000344008,None,,,,nirja,2024-12-02_19h17.28.213,solo_project,2024.1.5,None,2024-12-02 19h17.46.526384 +0530,
nunewical,ccrl,n,0,19,19,37,32.732794100185856,,,,,32.710080000106245,32.732794100185856,33.23463930003345,33.23463930003345,33.23463930003345,33.9431775000412,n,1,0.6797941999975592,None,,,,nirja,2024-12-02_19h17.28.213,solo_project,2024.1.5,None,2024-12-02 19h17.46.526384 +0530,
military  ,control,y,0,20,20,28,33.96708430000581,,,,,33.94452440016903,33.96708430000581,34.46887760004029,34.46887760004029,34.46887760004029,35.21214810013771,y,1,0.7128945000004023,None,,,,nirja,2024-12-02_19h17.28.213,solo_project,2024.1.5,None,2024-12-02 19h17.46.526384 +0530,
disluge,ccrl,n,0,21,21,27,35.23486470011994,,,,,35.21352260001004,35.23486470011994,35.735581000102684,35.735581000102684,35.75341959996149,36.42534409998916,n,1,0.6800174999516457,None,,,,nirja,2024-12-02_19h17.28.213,solo_project,2024.1.5,None,2024-12-02 19h17.46.526384 +0530,
mifikary,ccrl,n,0,22,22,29,36.452904200181365,,,,,36.42619330016896,36.452904200181365,36.953515300061554,36.953515300061554,36.987222200026736,37.78193389996886,n,1,0.8232126999646425,None,,,,nirja,2024-12-02_19h17.28.213,solo_project,2024.1.5,None,2024-12-02 19h17.46.526384 +0530,
rabigly,ccrl,n,0,23,23,19,37.804145800182596,,,,,37.783438000129536,37.804145800182596,38.305011100135744,38.305011100135744,38.323237100150436,39.015581000130624,n,1,0.7017651000060141,None,,,,nirja,2024-12-02_19h17.28.213,solo_project,2024.1.5,None,2024-12-02 19h17.46.526384 +0530,
reconal,ccrl,n,0,24,24,23,39.03857750003226,,,,,39.01658200006932,39.03857750003226,39.52406290010549,39.52406290010549,39.54067000001669,40.433866500156,n,1,0.8888397000264376,None,,,,nirja,2024-12-02_19h17.28.213,solo_project,2024.1.5,None,2024-12-02 19h17.46.526384 +0530,
potugar,ccrl,n,0,25,25,35,40.45715770008974,,,,,40.43525840016082,40.45715770008974,40.9577927000355,40.9577927000355,40.99126989999786,41.58209579996765,n,1,0.6091835999395698,None,,,,nirja,2024-12-02_19h17.28.213,solo_project,2024.1.5,None,2024-12-02 19h17.46.526384 +0530,
policy  ,control,y,0,26,26,6,41.60867700004019,,,,,41.58304450009018,41.60867700004019,42.09349410003051,42.09349410003051,42.10973839997314,42.76850000000559,y,1,0.6516019999980927,None,,,,nirja,2024-12-02_19h17.28.213,solo_project,2024.1.5,None,2024-12-02 19h17.46.526384 +0530,
coverage  ,control,y,0,27,27,30,42.79324200004339,,,,,42.77067310013808,42.79324200004339,43.293510700110346,43.293510700110346,43.31267770007253,44.08485420001671,y,1,0.7838334999978542,None,,,,nirja,2024-12-02_19h17.28.213,solo_project,2024.1.5,None,2024-12-02 19h17.46.526384 +0530,
consider  ,control,y,0,28,28,4,44.11135400016792,,,,,44.085588900139555,44.11135400016792,44.61191560002044,44.61191560002044,44.6291060000658,45.25607170001604,y,1,0.639392200158909,None,,,,nirja,2024-12-02_19h17.28.213,solo_project,2024.1.5,None,2024-12-02 19h17.46.526384 +0530,
recile,ccrl,n,0,29,29,9,45.27941810013726,,,,,45.256928300019354,45.27941810013726,45.76512080011889,45.76512080011889,45.780566700035706,46.555523300077766,y,0,0.7872017999179661,None,,,,nirja,2024-12-02_19h17.28.213,solo_project,2024.1.5,None,2024-12-02 19h17.46.526384 +0530,
numerical  ,control,y,0,30,30,36,46.58072010008618,,,,,46.556809100089595,46.58072010008618,47.06520980014466,47.06520980014466,47.08212690008804,47.724232100183144,y,1,0.6262773000635207,None,,,,nirja,2024-12-02_19h17.28.213,solo_project,2024.1.5,None,2024-12-02 19h17.46.526384 +0530,
removal  ,control,y,0,31,31,22,47.74845680012368,,,,,47.72558109997772,47.74845680012368,48.25017480016686,48.25017480016686,48.25017480016686,48.75607360014692,y,1,0.5022813000250608,None,,,,nirja,2024-12-02_19h17.28.213,solo_project,2024.1.5,None,2024-12-02 19h17.46.526384 +0530,
cocewage,ccrl,n,0,32,32,31,48.78273390000686,,,,,48.75671680015512,48.78273390000686,49.267941400175914,49.267941400175914,49.28472780017182,49.960160500137135,n,1,0.6887293001636863,None,,,,nirja,2024-12-02_19h17.28.213,solo_project,2024.1.5,None,2024-12-02 19h17.46.526384 +0530,
indicate  ,control,y,0,33,33,0,49.984392600134015,,,,,49.96137670008466,49.984392600134015,50.484895000001416,50.484895000001416,50.51788610010408,51.77970249997452,y,1,1.2798443001229316,None,,,,nirja,2024-12-02_19h17.28.213,solo_project,2024.1.5,None,2024-12-02 19h17.46.526384 +0530,
memory  ,control,y,0,34,34,14,51.80270120012574,,,,,51.781085200142115,51.80270120012574,52.28821659996174,52.28821659996174,52.30564990011044,52.87985030002892,y,1,0.5817373997997493,None,,,,nirja,2024-12-02_19h17.28.213,solo_project,2024.1.5,None,2024-12-02 19h17.46.526384 +0530,
denficy,ccrl,n,0,35,35,11,52.904250600142404,,,,,52.88104990008287,52.904250600142404,53.38876710017212,53.38876710017212,53.40607629995793,54.03032520017587,n,1,0.6292167999781668,None,,,,nirja,2024-12-02_19h17.28.213,solo_project,2024.1.5,None,2024-12-02 19h17.46.526384 +0530,
insibate,ccrl,n,0,36,36,1,54.0556554000359,,,,,54.03133250004612,54.0556554000359,54.54060110007413,54.54060110007413,54.55785950017162,55.466109400149435,n,1,0.8994628000073135,None,,,,nirja,2024-12-02_19h17.28.213,solo_project,2024.1.5,None,2024-12-02 19h17.46.526384 +0530,
quakity,ccrl,n,0,37,37,33,55.49063020013273,,,,,55.467644500080496,55.49063020013273,55.991025700001046,55.991025700001046,56.02422980009578,56.60252450010739,n,1,0.5961114999372512,None,,,,nirja,2024-12-02_19h17.28.213,solo_project,2024.1.5,None,2024-12-02 19h17.46.526384 +0530,
dispute  ,control,y,0,38,38,26,56.62496960000135,,,,,56.60345420008525,56.62496960000135,57.12567270011641,57.12567270011641,57.1592386001721,58.01597920013592,y,1,0.8718844000250101,None,,,,nirja,2024-12-02_19h17.28.213,solo_project,2024.1.5,None,2024-12-02 19h17.46.526384 +0530,
helicage,ccrl,n,0,39,39,3,58.02715930016711,,,,,58.016856300178915,58.02715930016711,58.527654099976644,58.527654099976644,58.527654099976644,59.187739700078964,n,1,0.6577700001653284,None,,,,nirja,2024-12-02_19h17.28.213,solo_project,2024.1.5,None,2024-12-02 19h17.46.526384 +0530,
,,,,,,,,,,,,,,,,,,,,,,59.188702600076795,59.21127940015867,64.19079679995775,nirja,2024-12-02_19h17.28.213,solo_project,2024.1.5,None,2024-12-02 19h17.46.526384 +0530,
