trials.thisRepN,trials.thisTrialN,trials.thisN,trials.thisIndex,thisRow.t,notes,trial.started,num_distr,fixation.started,target.started,mouse.started,trial.stopped,mouse.x,mouse.y,mouse.leftButton,mouse.midButton,mouse.rightButton,mouse.time,mouse.clicked_name,participant,session,date,expName,psychopyVersion,frameRate,expStart,
0,0,0,0,0.09425860000010289,,0.018368200000622892,5,0.09425860000010289,0.09425860000010289,0.05786479999915173,2.2665238000008685,[0.33166666666666667],[0.31],[1],[0],[0],[2.2073455000008835],['target'],149979,001,2024-10-10_14h55.26.519,visual_search_exp,2024.1.5,None,2024-10-10 14h55.35.663578 +0530,
1,0,1,0,2.3306462000000465,,2.2737045000012586,5,2.3306462000000465,2.3306462000000465,0.03167800000119314,3.5676032999999734,[-0.02],[0.28],[1],[0],[0],[1.2628666999989946],['target'],149979,001,2024-10-10_14h55.26.519,visual_search_exp,2024.1.5,None,2024-10-10 14h55.35.663578 +0530,
2,0,2,0,3.7988894999998593,,3.5732227000007697,10,3.7988894999998593,3.7988894999998593,0.20423400000072434,7.1212945000006584,[0.235],[-0.44666666666666666],[1],[0],[0],[3.344478600000002],['target'],149979,001,2024-10-10_14h55.26.519,visual_search_exp,2024.1.5,None,2024-10-10 14h55.35.663578 +0530,
3,0,3,0,7.202003200000036,,7.127090300000418,10,7.202003200000036,7.202003200000036,0.05439660000047297,10.541489500001262,[-0.03333333333333333],[0.37],[1],[0],[0],[3.3606079000001046],['target'],149979,001,2024-10-10_14h55.26.519,visual_search_exp,2024.1.5,None,2024-10-10 14h55.35.663578 +0530,
4,0,4,0,10.639908500001184,,10.547234499999831,10,10.639908500001184,10.639908500001184,0.05911329999980808,12.24317340000016,[-0.2733333333333333],[-0.1],[1],[0],[0],[1.6373884999993606],['target'],149979,001,2024-10-10_14h55.26.519,visual_search_exp,2024.1.5,None,2024-10-10 14h55.35.663578 +0530,
5,0,5,0,12.29095740000048,,12.248953300000721,5,12.29095740000048,12.29095740000048,0.029550799999924493,13.829038900001251,[0.3466666666666667],[-0.3283333333333333],[1],[0],[0],[1.5511713000014424],['target'],149979,001,2024-10-10_14h55.26.519,visual_search_exp,2024.1.5,None,2024-10-10 14h55.35.663578 +0530,
6,0,6,0,13.909377100000711,,13.8348459000008,10,13.909377100000711,13.909377100000711,0.055772600000636885,16.247230099999797,[-0.27],[-0.4483333333333333],[1],[0],[0],[2.3572607999994943],['target'],149979,001,2024-10-10_14h55.26.519,visual_search_exp,2024.1.5,None,2024-10-10 14h55.35.663578 +0530,
7,0,7,0,16.329568799999834,,16.2529598000001,10,16.329568799999834,16.329568799999834,0.054008500001145876,20.469430700000885,[0.36666666666666664],[0.4583333333333333],[1],[0],[0],[4.163040900000851],['target'],149979,001,2024-10-10_14h55.26.519,visual_search_exp,2024.1.5,None,2024-10-10 14h55.35.663578 +0530,
8,0,8,0,20.533120199999757,,20.475327400001333,5,20.533120199999757,20.533120199999757,0.028572600000188686,22.1391808999997,[0.18666666666666668],[-0.1],[1],[0],[0],[1.6359333999989758],['target'],149979,001,2024-10-10_14h55.26.519,visual_search_exp,2024.1.5,None,2024-10-10 14h55.35.663578 +0530,
9,0,9,0,22.219184600000517,,22.144867400000294,10,22.219184600000517,22.219184600000517,0.05417640000086976,27.34328860000096,[0.38166666666666665],[-0.285],[1],[0],[0],[5.144866200000251],['target'],149979,001,2024-10-10_14h55.26.519,visual_search_exp,2024.1.5,None,2024-10-10 14h55.35.663578 +0530,
10,0,10,0,27.42485570000099,,27.349105900000723,10,27.42485570000099,27.42485570000099,0.05702879999989818,29.729219300001205,[0.043333333333333335],[-0.4766666666666667],[1],[0],[0],[2.323751699999775],['target'],149979,001,2024-10-10_14h55.26.519,visual_search_exp,2024.1.5,None,2024-10-10 14h55.35.663578 +0530,
11,0,11,0,29.826854300001287,,29.735060599999997,10,29.826854300001287,29.826854300001287,0.053283000001101755,31.331105799999932,[0.43666666666666665],[-0.03666666666666667],[1],[0],[0],[1.5432810000002064],['target'],149979,001,2024-10-10_14h55.26.519,visual_search_exp,2024.1.5,None,2024-10-10 14h55.35.663578 +0530,
12,0,12,0,31.429376600000978,,31.336903999999777,10,31.429376600000978,31.429376600000978,0.05526169999939157,33.03332640000008,[-0.185],[0.13333333333333333],[1],[0],[0],[1.6418467000003147],['target'],149979,001,2024-10-10_14h55.26.519,visual_search_exp,2024.1.5,None,2024-10-10 14h55.35.663578 +0530,
13,0,13,0,33.13048549999985,,33.0393296000002,10,33.13048549999985,33.13048549999985,0.05491930000061984,34.534591499999806,[-0.15333333333333332],[-0.38166666666666665],[1],[0],[0],[1.4409809999997378],['target'],149979,001,2024-10-10_14h55.26.519,visual_search_exp,2024.1.5,None,2024-10-10 14h55.35.663578 +0530,
14,0,14,0,34.61651259999962,,34.54050620000089,10,34.61651259999962,34.61651259999962,0.055230500000106986,37.671014900000955,[0.12666666666666668],[0.475],[1],[0],[0],[3.0759973999993235],['target'],149979,001,2024-10-10_14h55.26.519,visual_search_exp,2024.1.5,None,2024-10-10 14h55.35.663578 +0530,
15,0,15,0,37.7521041,,37.67703270000129,10,37.7521041,37.7521041,0.05405789999895205,39.15637070000048,[0.12],[0.056666666666666664],[1],[0],[0],[1.4257933000008052],['target'],149979,001,2024-10-10_14h55.26.519,visual_search_exp,2024.1.5,None,2024-10-10 14h55.35.663578 +0530,
16,0,16,0,39.20380120000118,,39.162087300001076,5,39.20380120000118,39.20380120000118,0.027990000000500004,41.44269520000125,[-0.425],[0.011666666666666667],[1],[0],[0],[2.2532279000006383],['target'],149979,001,2024-10-10_14h55.26.519,visual_search_exp,2024.1.5,None,2024-10-10 14h55.35.663578 +0530,
17,0,17,0,41.489350200001354,,41.44847459999983,5,41.489350200001354,41.489350200001354,0.028313400000115507,43.79497640000045,[0.22],[0.22166666666666668],[1],[0],[0],[2.3188380999999936],['target'],149979,001,2024-10-10_14h55.26.519,visual_search_exp,2024.1.5,None,2024-10-10 14h55.35.663578 +0530,
18,0,18,0,43.84201320000102,,43.800840300000345,5,43.84201320000102,43.84201320000102,0.0289876999995613,45.59783430000061,[-0.14166666666666666],[0.17333333333333334],[1],[0],[0],[1.7687871999987692],['target'],149979,001,2024-10-10_14h55.26.519,visual_search_exp,2024.1.5,None,2024-10-10 14h55.35.663578 +0530,
19,0,19,0,45.644010800000615,,45.60359050000079,5,45.644010800000615,45.644010800000615,0.027905299999474664,47.74988520000079,[-0.09333333333333334],[-0.31333333333333335],[1],[0],[0],[2.119045299999925],['target'],149979,001,2024-10-10_14h55.26.519,visual_search_exp,2024.1.5,None,2024-10-10 14h55.35.663578 +0530,
20,0,20,0,47.83037350000086,,47.75548069999968,10,47.83037350000086,47.83037350000086,0.05196020000039425,49.483892500000366,[-0.165],[0.24166666666666667],[1],[0],[0],[1.6770214999996824],['target'],149979,001,2024-10-10_14h55.26.519,visual_search_exp,2024.1.5,None,2024-10-10 14h55.35.663578 +0530,
21,0,21,0,49.54870790000132,,49.48987920000036,5,49.54870790000132,49.54870790000132,0.03440990000126476,51.22044180000012,[0.19333333333333333],[0.285],[1],[0],[0],[1.6965312000011181],['target'],149979,001,2024-10-10_14h55.26.519,visual_search_exp,2024.1.5,None,2024-10-10 14h55.35.663578 +0530,
22,0,22,0,51.26705700000093,,51.22614120000071,5,51.26705700000093,51.26705700000093,0.027379300001484808,52.23758590000034,[0.335],[-0.018333333333333333],[1],[0],[0],[0.9847592000005534],['target'],149979,001,2024-10-10_14h55.26.519,visual_search_exp,2024.1.5,None,2024-10-10 14h55.35.663578 +0530,
23,0,23,0,52.28452780000043,,52.24337700000069,5,52.28452780000043,52.28452780000043,0.02724130000024161,54.34049849999974,[-0.35833333333333334],[0.355],[1],[0],[0],[2.07049299999926],['target'],149979,001,2024-10-10_14h55.26.519,visual_search_exp,2024.1.5,None,2024-10-10 14h55.35.663578 +0530,
24,0,24,0,54.43783280000025,,54.34633060000124,10,54.43783280000025,54.43783280000025,0.056406899999274174,56.524768200000835,[0.15333333333333332],[-0.44333333333333336],[1],[0],[0],[2.1227064000013343],['target'],149979,001,2024-10-10_14h55.26.519,visual_search_exp,2024.1.5,None,2024-10-10 14h55.35.663578 +0530,
25,0,25,0,56.60619310000038,,56.53070310000112,10,56.60619310000038,56.60619310000038,0.054356900000129826,58.51057310000033,[-0.30666666666666664],[-0.06],[1],[0],[0],[1.9261907000000065],['target'],149979,001,2024-10-10_14h55.26.519,visual_search_exp,2024.1.5,None,2024-10-10 14h55.35.663578 +0530,
26,0,26,0,58.60895359999995,,58.516524599999684,10,58.60895359999995,58.60895359999995,0.055284199999732664,60.01309070000025,[-0.425],[0.36333333333333334],[1],[0],[0],[1.441977800001041],['target'],149979,001,2024-10-10_14h55.26.519,visual_search_exp,2024.1.5,None,2024-10-10 14h55.35.663578 +0530,
27,0,27,0,60.109861300001285,,60.01898240000082,10,60.109861300001285,60.109861300001285,0.05450870000095165,62.8486324000005,[-0.14],[0.47333333333333333],[1],[0],[0],[2.7758355000005395],['target'],149979,001,2024-10-10_14h55.26.519,visual_search_exp,2024.1.5,None,2024-10-10 14h55.35.663578 +0530,
28,0,28,0,62.89634920000026,,62.85450110000056,5,62.89634920000026,62.89634920000026,0.0288139999993291,65.13527869999962,[0.2866666666666667],[0.43],[1],[0],[0],[2.2525482999990345],['target'],149979,001,2024-10-10_14h55.26.519,visual_search_exp,2024.1.5,None,2024-10-10 14h55.35.663578 +0530,
29,0,29,0,65.21622390000084,,65.14117960000112,10,65.21622390000084,65.21622390000084,0.05424510000011651,66.3519264000006,[0.305],[0.115],[1],[0],[0],[1.1572058000001562],['target'],149979,001,2024-10-10_14h55.26.519,visual_search_exp,2024.1.5,None,2024-10-10 14h55.35.663578 +0530,
30,0,30,0,66.41668140000002,,66.35781700000007,5,66.41668140000002,66.41668140000002,0.030276099998445716,67.83831029999965,[-0.495],[-0.42333333333333334],[1],[0],[0],[1.4508836999993946],['target'],149979,001,2024-10-10_14h55.26.519,visual_search_exp,2024.1.5,None,2024-10-10 14h55.35.663578 +0530,
31,0,31,0,67.91898190000029,,67.84399850000045,10,67.91898190000029,67.91898190000029,0.05383179999989807,70.28994179999972,[-0.205],[0.04666666666666667],[1],[0],[0],[2.3926864999993995],['target'],149979,001,2024-10-10_14h55.26.519,visual_search_exp,2024.1.5,None,2024-10-10 14h55.35.663578 +0530,
32,0,32,0,70.35465149999982,,70.29568560000007,5,70.35465149999982,70.35465149999982,0.03028730000005453,72.17665169999964,[0.21666666666666667],[-0.37166666666666665],[1],[0],[0],[1.8512948000006872],['target'],149979,001,2024-10-10_14h55.26.519,visual_search_exp,2024.1.5,None,2024-10-10 14h55.35.663578 +0530,
33,0,33,0,72.24063039999965,,72.1825372000003,5,72.24063039999965,72.24063039999965,0.029295800000909367,74.44576140000026,[-0.4083333333333333],[-0.27166666666666667],[1],[0],[0],[2.2345048999995925],['target'],149979,001,2024-10-10_14h55.26.519,visual_search_exp,2024.1.5,None,2024-10-10 14h55.35.663578 +0530,
34,0,34,0,74.5090321000007,,74.45158660000016,5,74.5090321000007,74.5090321000007,0.029966500000227825,76.71474599999965,[-0.04],[-0.34833333333333333],[1],[0],[0],[2.233798899998874],['target'],149979,001,2024-10-10_14h55.26.519,visual_search_exp,2024.1.5,None,2024-10-10 14h55.35.663578 +0530,
35,0,35,0,76.79556140000022,,76.72059890000128,10,76.79556140000022,76.79556140000022,0.05380440000044473,78.29936710000038,[-0.23166666666666666],[0.06833333333333333],[1],[0],[0],[1.5257101000006514],['target'],149979,001,2024-10-10_14h55.26.519,visual_search_exp,2024.1.5,None,2024-10-10 14h55.35.663578 +0530,
36,0,36,0,78.36351699999977,,78.30506160000004,5,78.36351699999977,78.36351699999977,0.0284047000004648,80.35201380000035,[0.25166666666666665],[-0.12833333333333333],[1],[0],[0],[2.019081599999481],['target'],149979,001,2024-10-10_14h55.26.519,visual_search_exp,2024.1.5,None,2024-10-10 14h55.35.663578 +0530,
37,0,37,0,80.41611569999986,,80.3578350000007,5,80.41611569999986,80.41611569999986,0.029235100000732928,82.92122469999958,[0.18],[0.4666666666666667],[1],[0],[0],[2.5347858000004635],['target'],149979,001,2024-10-10_14h55.26.519,visual_search_exp,2024.1.5,None,2024-10-10 14h55.35.663578 +0530,
38,0,38,0,82.98479820000102,,82.92709079999986,5,82.98479820000102,82.98479820000102,0.02954390000013518,85.69162350000079,[0.22166666666666668],[-0.24333333333333335],[1],[0],[0],[2.7355501000001823],['target'],149979,001,2024-10-10_14h55.26.519,visual_search_exp,2024.1.5,None,2024-10-10 14h55.35.663578 +0530,
39,0,39,0,85.75533730000097,,85.69934219999959,5,85.75533730000097,85.75533730000097,0.03195450000021083,87.32644310000069,[0.085],[-0.40166666666666667],[1],[0],[0],[1.596538200001305],['target'],149979,001,2024-10-10_14h55.26.519,visual_search_exp,2024.1.5,None,2024-10-10 14h55.35.663578 +0530,
40,0,40,0,87.42302430000018,,87.33223689999977,10,87.42302430000018,87.42302430000018,0.055586300000868505,88.89457980000043,[0.3283333333333333],[-0.30333333333333334],[1],[0],[0],[1.5072108000003936],['target'],149979,001,2024-10-10_14h55.26.519,visual_search_exp,2024.1.5,None,2024-10-10 14h55.35.663578 +0530,
41,0,41,0,88.9414711999998,,88.90072760000112,5,88.9414711999998,88.9414711999998,0.02885210000022198,90.9138221000012,[-0.3],[-0.3383333333333333],[1],[0],[0],[1.9848655000005238],['target'],149979,001,2024-10-10_14h55.26.519,visual_search_exp,2024.1.5,None,2024-10-10 14h55.35.663578 +0530,
42,0,42,0,90.97763880000093,,90.91956019999998,5,90.97763880000093,90.97763880000093,0.029689999999391148,92.7653220000011,[-0.19166666666666668],[0.135],[1],[0],[0],[1.8167534000003798],['target'],149979,001,2024-10-10_14h55.26.519,visual_search_exp,2024.1.5,None,2024-10-10 14h55.35.663578 +0530,
43,0,43,0,92.81237880000117,,92.77107950000027,5,92.81237880000117,92.81237880000117,0.02859840000019176,95.7183771,[0.44],[-0.26],[1],[0],[0],[2.919349300000249],['target'],149979,001,2024-10-10_14h55.26.519,visual_search_exp,2024.1.5,None,2024-10-10 14h55.35.663578 +0530,
44,0,44,0,95.76553179999974,,95.72407360000034,5,95.76553179999974,95.76553179999974,0.02814300000136427,98.37215880000076,[-0.34],[-0.40166666666666667],[1],[0],[0],[2.620583899999474],['target'],149979,001,2024-10-10_14h55.26.519,visual_search_exp,2024.1.5,None,2024-10-10 14h55.35.663578 +0530,
45,0,45,0,98.41849379999985,,98.3779781000012,5,98.41849379999985,98.41849379999985,0.027361200000086683,100.80747710000105,[-0.30833333333333335],[-0.26666666666666666],[1],[0],[0],[2.402876900001502],['target'],149979,001,2024-10-10_14h55.26.519,visual_search_exp,2024.1.5,None,2024-10-10 14h55.35.663578 +0530,
46,0,46,0,100.85441280000123,,100.8133510000007,5,100.85441280000123,100.85441280000123,0.02877740000076301,103.87839440000062,[-0.21833333333333332],[0.43166666666666664],[1],[0],[0],[3.036937900000339],['target'],149979,001,2024-10-10_14h55.26.519,visual_search_exp,2024.1.5,None,2024-10-10 14h55.35.663578 +0530,
47,0,47,0,103.95769959999961,,103.88419369999974,10,103.95769959999961,103.95769959999961,0.05173370000011346,105.76186960000086,[-0.06333333333333334],[-0.225],[1],[0],[0],[1.8265343000002758],['target'],149979,001,2024-10-10_14h55.26.519,visual_search_exp,2024.1.5,None,2024-10-10 14h55.35.663578 +0530,
48,0,48,0,105.8100243000008,,105.76767850000033,5,105.8100243000008,105.8100243000008,0.027853999999933876,107.14883240000017,[-0.13333333333333333],[-0.09166666666666666],[1],[0],[0],[1.3539774000000762],['target'],149979,001,2024-10-10_14h55.26.519,visual_search_exp,2024.1.5,None,2024-10-10 14h55.35.663578 +0530,
49,0,49,0,107.22876030000043,,107.15466500000002,10,107.22876030000043,107.22876030000043,0.05271150000044145,108.91599060000044,[-0.01],[-0.36833333333333335],[1],[0],[0],[1.7091704000013124],['target'],149979,001,2024-10-10_14h55.26.519,visual_search_exp,2024.1.5,None,2024-10-10 14h55.35.663578 +0530,
50,0,50,0,108.99663909999981,,108.92186159999983,10,108.99663909999981,108.99663909999981,0.054521800000657095,111.23555339999984,[-0.16166666666666665],[0.19333333333333333],[1],[0],[0],[2.2598123000007035],['target'],149979,001,2024-10-10_14h55.26.519,visual_search_exp,2024.1.5,None,2024-10-10 14h55.35.663578 +0530,
51,0,51,0,111.31665919999978,,111.24137429999973,10,111.31665919999978,111.31665919999978,0.05326269999932265,112.55292590000136,[0.18],[0.16166666666666665],[1],[0],[0],[1.2589035000000877],['target'],149979,001,2024-10-10_14h55.26.519,visual_search_exp,2024.1.5,None,2024-10-10 14h55.35.663578 +0530,
52,0,52,0,112.63396230000035,,112.55875960000049,10,112.63396230000035,112.63396230000035,0.05327170000055048,115.02399420000074,[0.28],[-0.42833333333333334],[1],[0],[0],[2.41246719999981],['target'],149979,001,2024-10-10_14h55.26.519,visual_search_exp,2024.1.5,None,2024-10-10 14h55.35.663578 +0530,
53,0,53,0,115.08758930000113,,115.02989479999997,5,115.08758930000113,115.08758930000113,0.03373559999999998,116.60873160000119,[0.425],[-0.015],[1],[0],[0],[1.5456303999999363],['target'],149979,001,2024-10-10_14h55.26.519,visual_search_exp,2024.1.5,None,2024-10-10 14h55.35.663578 +0530,
54,0,54,0,116.65501640000002,,116.61431890000131,5,116.65501640000002,116.65501640000002,0.026975299999321578,118.44386810000105,[0.155],[-0.16166666666666665],[1],[0],[0],[1.803144900000916],['target'],149979,001,2024-10-10_14h55.26.519,visual_search_exp,2024.1.5,None,2024-10-10 14h55.35.663578 +0530,
55,0,55,0,118.52371289999974,,118.44965930000035,10,118.52371289999974,118.52371289999974,0.05227120000017749,122.49696419999964,[-0.125],[-0.09166666666666666],[1],[0],[0],[3.9957596999993257],['target'],149979,001,2024-10-10_14h55.26.519,visual_search_exp,2024.1.5,None,2024-10-10 14h55.35.663578 +0530,
56,0,56,0,122.57888420000018,,122.50280230000135,10,122.57888420000018,122.57888420000018,0.05264840000018012,125.0508815000012,[0.355],[-0.09666666666666666],[1],[0],[0],[2.4960246000009647],['target'],149979,001,2024-10-10_14h55.26.519,visual_search_exp,2024.1.5,None,2024-10-10 14h55.35.663578 +0530,
57,0,57,0,125.11500650000016,,125.05645780000123,5,125.11500650000016,125.11500650000016,0.027892399999473128,126.31891069999983,[0.17666666666666667],[-0.175],[1],[0],[0],[1.2351791999990382],['target'],149979,001,2024-10-10_14h55.26.519,visual_search_exp,2024.1.5,None,2024-10-10 14h55.35.663578 +0530,
58,0,58,0,126.39984019999974,,126.32466899999963,10,126.39984019999974,126.39984019999974,0.05329440000059549,131.1734348000009,[0.33],[0.2683333333333333],[1],[0],[0],[4.796111600000586],['target'],149979,001,2024-10-10_14h55.26.519,visual_search_exp,2024.1.5,None,2024-10-10 14h55.35.663578 +0530,
59,0,59,0,131.22099900000103,,131.17930010000055,5,131.22099900000103,131.22099900000103,0.028272700001252815,134.21091309999974,[-0.12666666666666668],[-0.305],[1],[0],[0],[3.0039921999996295],['target'],149979,001,2024-10-10_14h55.26.519,visual_search_exp,2024.1.5,None,2024-10-10 14h55.35.663578 +0530,
60,0,60,0,134.25785320000068,,134.2166589999997,5,134.25785320000068,134.25785320000068,0.02780670000174723,135.49540490000072,[-0.085],[0.005],[1],[0],[0],[1.2515493999999308],['target'],149979,001,2024-10-10_14h55.26.519,visual_search_exp,2024.1.5,None,2024-10-10 14h55.35.663578 +0530,
61,0,61,0,135.54237140000077,,135.50109200000043,5,135.54237140000077,135.54237140000077,0.028326100000413135,136.8301905999997,[0.22333333333333333],[-0.16166666666666665],[1],[0],[0],[1.3013815999984217],['target'],149979,001,2024-10-10_14h55.26.519,visual_search_exp,2024.1.5,None,2024-10-10 14h55.35.663578 +0530,
62,0,62,0,136.87715390000085,,136.83587570000054,5,136.87715390000085,136.87715390000085,0.028292199998759315,138.44843450000008,[-0.11333333333333333],[0.23666666666666666],[1],[0],[0],[1.5849428000001353],['target'],149979,001,2024-10-10_14h55.26.519,visual_search_exp,2024.1.5,None,2024-10-10 14h55.35.663578 +0530,
63,0,63,0,138.528989800001,,138.45427070000005,10,138.528989800001,138.528989800001,0.05372050000005402,141.83472540000002,[0.38333333333333336],[-0.47],[1],[0],[0],[3.327402599999914],['target'],149979,001,2024-10-10_14h55.26.519,visual_search_exp,2024.1.5,None,2024-10-10 14h55.35.663578 +0530,
64,0,64,0,141.91688609999983,,141.84053230000063,10,141.91688609999983,141.91688609999983,0.0543656000008923,143.58792090000134,[-0.425],[-0.013333333333333334],[1],[0],[0],[1.693499499999234],['target'],149979,001,2024-10-10_14h55.26.519,visual_search_exp,2024.1.5,None,2024-10-10 14h55.35.663578 +0530,
65,0,65,0,143.6516042000003,,143.59768430000076,5,143.6516042000003,143.6516042000003,0.03489210000043386,145.64117460000125,[0.21166666666666667],[0.2783333333333333],[1],[0],[0],[2.009975900000427],['target'],149979,001,2024-10-10_14h55.26.519,visual_search_exp,2024.1.5,None,2024-10-10 14h55.35.663578 +0530,
66,0,66,0,145.73757000000114,,145.65011940000113,10,145.73757000000114,145.73757000000114,0.06222490000072867,149.74410230000103,[0.055],[-0.37333333333333335],[1],[0],[0],[4.033048499999495],['target'],149979,001,2024-10-10_14h55.26.519,visual_search_exp,2024.1.5,None,2024-10-10 14h55.35.663578 +0530,
67,0,67,0,149.82467019999967,,149.74999949999983,10,149.82467019999967,149.82467019999967,0.05345070000112173,152.02987480000047,[-0.31666666666666665],[0.105],[1],[0],[0],[2.2271302999997715],['target'],149979,001,2024-10-10_14h55.26.519,visual_search_exp,2024.1.5,None,2024-10-10 14h55.35.663578 +0530,
68,0,68,0,152.11121149999963,,152.03578730000118,10,152.11121149999963,152.11121149999963,0.05389450000075158,153.41516370000136,[-0.17333333333333334],[-0.315],[1],[0],[0],[1.3261266000008618],['target'],149979,001,2024-10-10_14h55.26.519,visual_search_exp,2024.1.5,None,2024-10-10 14h55.35.663578 +0530,
69,0,69,0,153.4954742000009,,153.42098400000032,10,153.4954742000009,153.4954742000009,0.05305380000027071,156.10116589999961,[0.22833333333333333],[0.005],[1],[0],[0],[2.6277406999997766],['target'],149979,001,2024-10-10_14h55.26.519,visual_search_exp,2024.1.5,None,2024-10-10 14h55.35.663578 +0530,
70,0,70,0,156.14829070000087,,156.10700520000137,5,156.14829070000087,156.14829070000087,0.028660399999353103,157.4535949000001,[0.31],[-0.14333333333333334],[1],[0],[0],[1.3185339999999997],['target'],149979,001,2024-10-10_14h55.26.519,visual_search_exp,2024.1.5,None,2024-10-10 14h55.35.663578 +0530,
71,0,71,0,157.53411980000055,,157.45942579999974,10,157.53411980000055,157.53411980000055,0.0548545000001468,159.90596110000115,[-0.42],[0.40166666666666667],[1],[0],[0],[2.392162300000564],['target'],149979,001,2024-10-10_14h55.26.519,visual_search_exp,2024.1.5,None,2024-10-10 14h55.35.663578 +0530,
72,0,72,0,160.00277020000067,,159.9174737000012,10,160.00277020000067,160.00277020000067,0.06303420000040205,161.43987150000066,[-0.015],[0.15833333333333333],[1],[0],[0],[1.4615505999991],['target'],149979,001,2024-10-10_14h55.26.519,visual_search_exp,2024.1.5,None,2024-10-10 14h55.35.663578 +0530,
73,0,73,0,161.52178100000128,,161.44579909999993,10,161.52178100000128,161.52178100000128,0.053459400000065216,163.80962739999995,[-0.36666666666666664],[-0.3433333333333333],[1],[0],[0],[2.3109094999999797],['target'],149979,001,2024-10-10_14h55.26.519,visual_search_exp,2024.1.5,None,2024-10-10 14h55.35.663578 +0530,
74,0,74,0,163.90704770000048,,163.81545480000023,10,163.90704770000048,163.90704770000048,0.06044640000072832,165.4947888000006,[0.175],[0.35333333333333333],[1],[0],[0],[1.61940709999908],['target'],149979,001,2024-10-10_14h55.26.519,visual_search_exp,2024.1.5,None,2024-10-10 14h55.35.663578 +0530,
75,0,75,0,165.57619280000108,,165.50086320000082,10,165.57619280000108,165.57619280000108,0.05380119999972521,166.78048599999966,[0.33666666666666667],[-0.006666666666666667],[1],[0],[0],[1.2263672000008228],['target'],149979,001,2024-10-10_14h55.26.519,visual_search_exp,2024.1.5,None,2024-10-10 14h55.35.663578 +0530,
76,0,76,0,166.84371490000012,,166.7863283000006,5,166.84371490000012,166.84371490000012,0.030002499999682186,167.86453100000108,[0.35333333333333333],[-0.025],[1],[0],[0],[1.048729000000094],['target'],149979,001,2024-10-10_14h55.26.519,visual_search_exp,2024.1.5,None,2024-10-10 14h55.35.663578 +0530,
77,0,77,0,167.92883110000002,,167.87029110000003,5,167.92883110000002,167.92883110000002,0.03088740000021062,168.98214879999978,[0.34833333333333333],[0.03],[1],[0],[0],[1.081570999998803],['target'],149979,001,2024-10-10_14h55.26.519,visual_search_exp,2024.1.5,None,2024-10-10 14h55.35.663578 +0530,
78,0,78,0,169.0793248000009,,168.98784850000084,10,169.0793248000009,169.0793248000009,0.05662789999951201,172.0697149000007,[0.31833333333333336],[-0.3983333333333333],[1],[0],[0],[3.025460799999564],['target'],149979,001,2024-10-10_14h55.26.519,visual_search_exp,2024.1.5,None,2024-10-10 14h55.35.663578 +0530,
79,0,79,0,172.1334313999996,,172.07807010000033,5,172.1334313999996,172.1334313999996,0.03739080000013928,173.80368360000102,[0.125],[0.31666666666666665],[1],[0],[0],[1.6896379999998317],['target'],149979,001,2024-10-10_14h55.26.519,visual_search_exp,2024.1.5,None,2024-10-10 14h55.35.663578 +0530,
80,0,80,0,173.85127980000107,,173.80939500000022,5,173.85127980000107,173.85127980000107,0.027484799999001552,176.0245431000003,[0.47833333333333333],[-0.13333333333333333],[1],[0],[0],[2.1881037000002834],['target'],149979,001,2024-10-10_14h55.26.519,visual_search_exp,2024.1.5,None,2024-10-10 14h55.35.663578 +0530,
81,0,81,0,176.08706950000123,,176.0304855000013,5,176.08706950000123,176.08706950000123,0.03409819999978936,177.92672310000125,[-0.44333333333333336],[0.17],[1],[0],[0],[1.8624393999998574],['target'],149979,001,2024-10-10_14h55.26.519,visual_search_exp,2024.1.5,None,2024-10-10 14h55.35.663578 +0530,
82,0,82,0,178.02482340000097,,177.93685189999997,5,178.02482340000097,178.02482340000097,0.054231699999945704,179.96048880000126,[0.4816666666666667],[-0.06833333333333333],[1],[0],[0],[1.9714191000002756],['target'],149979,001,2024-10-10_14h55.26.519,visual_search_exp,2024.1.5,None,2024-10-10 14h55.35.663578 +0530,
83,0,83,0,180.04170069999964,,179.96863099999973,5,180.04170069999964,180.04170069999964,0.039765299999999115,181.66480800000136,[0.36333333333333334],[0.465],[1],[0],[0],[1.656647800000428],['target'],149979,001,2024-10-10_14h55.26.519,visual_search_exp,2024.1.5,None,2024-10-10 14h55.35.663578 +0530,
84,0,84,0,181.7275453000002,,181.67099430000053,5,181.7275453000002,181.7275453000002,0.03553050000118674,189.95427519999976,[0.37666666666666665],[-0.16333333333333333],[1],[0],[0],[8.248490500000116],['target'],149979,001,2024-10-10_14h55.26.519,visual_search_exp,2024.1.5,None,2024-10-10 14h55.35.663578 +0530,
85,0,85,0,190.01875029999974,,189.9640175000004,5,190.01875029999974,190.01875029999974,0.039889000001494423,192.49262890000136,[0.49166666666666664],[0.48833333333333334],[1],[0],[0],[2.490184099999169],['target'],149979,001,2024-10-10_14h55.26.519,visual_search_exp,2024.1.5,None,2024-10-10 14h55.35.663578 +0530,
86,0,86,0,192.57223630000044,,192.49837200000002,10,192.57223630000044,192.57223630000044,0.05266309999933583,194.90997679999964,[-0.3333333333333333],[-0.4],[1],[0],[0],[2.3596156999992672],['target'],149979,001,2024-10-10_14h55.26.519,visual_search_exp,2024.1.5,None,2024-10-10 14h55.35.663578 +0530,
87,0,87,0,194.97419780000018,,194.91590950000136,5,194.97419780000018,194.97419780000018,0.04373740000119142,196.11185950000072,[0.33166666666666667],[0.30833333333333335],[1],[0],[0],[1.1529323999984626],['target'],149979,001,2024-10-10_14h55.26.519,visual_search_exp,2024.1.5,None,2024-10-10 14h55.35.663578 +0530,
88,0,88,0,196.1927312000007,,196.11766999999963,10,196.1927312000007,196.1927312000007,0.055992999999944004,197.7799300000006,[-0.15666666666666668],[-0.44],[1],[0],[0],[1.6067548999999417],['target'],149979,001,2024-10-10_14h55.26.519,visual_search_exp,2024.1.5,None,2024-10-10 14h55.35.663578 +0530,
89,0,89,0,197.8607877000013,,197.78947470000094,5,197.8607877000013,197.8607877000013,0.04549609999958193,199.2981534999999,[-0.08833333333333333],[0.14166666666666666],[1],[0],[0],[1.4646830999990925],['target'],149979,001,2024-10-10_14h55.26.519,visual_search_exp,2024.1.5,None,2024-10-10 14h55.35.663578 +0530,
90,0,90,0,199.37968910000018,,199.30410590000065,10,199.37968910000018,199.37968910000018,0.053953200000250945,201.01602640000056,[-0.48],[-0.15333333333333332],[1],[0],[0],[1.6586706999987655],['target'],149979,001,2024-10-10_14h55.26.519,visual_search_exp,2024.1.5,None,2024-10-10 14h55.35.663578 +0530,
91,0,91,0,201.11446790000082,,201.02176190000137,10,201.11446790000082,201.11446790000082,0.05598640000062005,202.45259280000028,[0.11],[-0.21833333333333332],[1],[0],[0],[1.3754135999988648],['target'],149979,001,2024-10-10_14h55.26.519,visual_search_exp,2024.1.5,None,2024-10-10 14h55.35.663578 +0530,
92,0,92,0,202.53307570000106,,202.45843820000118,10,202.53307570000106,202.53307570000106,0.055025199999363394,204.78729060000114,[0.028333333333333332],[0.42333333333333334],[1],[0],[0],[2.2744753000006313],['target'],149979,001,2024-10-10_14h55.26.519,visual_search_exp,2024.1.5,None,2024-10-10 14h55.35.663578 +0530,
93,0,93,0,204.88483030000134,,204.79708410000057,10,204.88483030000134,204.88483030000134,0.06086510000022827,207.9239546000008,[0.30333333333333334],[-0.09666666666666666],[1],[0],[0],[3.067508699999962],['target'],149979,001,2024-10-10_14h55.26.519,visual_search_exp,2024.1.5,None,2024-10-10 14h55.35.663578 +0530,
94,0,94,0,207.98922070000117,,207.9299976000002,5,207.98922070000117,207.98922070000117,0.030011700000613928,209.39419360000102,[-0.3616666666666667],[0.16833333333333333],[1],[0],[0],[1.4348613000001933],['target'],149979,001,2024-10-10_14h55.26.519,visual_search_exp,2024.1.5,None,2024-10-10 14h55.35.663578 +0530,
95,0,95,0,209.43989350000084,,209.4000347000001,5,209.43989350000084,209.43989350000084,0.02721479999854637,210.57760410000083,[-0.06],[0.12833333333333333],[1],[0],[0],[1.1509773999987374],['target'],149979,001,2024-10-10_14h55.26.519,visual_search_exp,2024.1.5,None,2024-10-10 14h55.35.663578 +0530,
96,0,96,0,210.62479480000002,,210.5832879999998,5,210.62479480000002,210.62479480000002,0.026480499998797313,212.36318070000016,[0.235],[0.4266666666666667],[1],[0],[0],[1.7540318999999727],['target'],149979,001,2024-10-10_14h55.26.519,visual_search_exp,2024.1.5,None,2024-10-10 14h55.35.663578 +0530,
97,0,97,0,212.4263787,,212.36891579999974,5,212.4263787,212.4263787,0.029191999999966356,213.91519030000018,[0.15],[-0.06833333333333333],[1],[0],[0],[1.5177316999997856],['target'],149979,001,2024-10-10_14h55.26.519,visual_search_exp,2024.1.5,None,2024-10-10 14h55.35.663578 +0530,
98,0,98,0,213.9955718000001,,213.92092430000048,10,213.9955718000001,213.9955718000001,0.054969400000118185,215.51565140000093,[-0.21333333333333335],[-0.055],[1],[0],[0],[1.54040680000071],['target'],149979,001,2024-10-10_14h55.26.519,visual_search_exp,2024.1.5,None,2024-10-10 14h55.35.663578 +0530,
99,0,99,0,215.58003790000112,,215.52141400000073,5,215.58003790000112,215.58003790000112,0.0307345000001078,216.68450440000015,[0.085],[-0.025],[1],[0],[0],[1.1329906000009942],['target'],149979,001,2024-10-10_14h55.26.519,visual_search_exp,2024.1.5,None,2024-10-10 14h55.35.663578 +0530,
100,0,100,0,216.73133469999993,,216.69030500000008,5,216.73133469999993,216.73133469999993,0.027531800000360818,218.7199313000001,[-0.37166666666666665],[0.44],[1],[0],[0],[2.002736000000368],['target'],149979,001,2024-10-10_14h55.26.519,visual_search_exp,2024.1.5,None,2024-10-10 14h55.35.663578 +0530,
101,0,101,0,218.80086420000043,,218.72565460000078,10,218.80086420000043,218.80086420000043,0.052375600000232225,220.971405100001,[0.455],[-0.16],[1],[0],[0],[2.194017800000438],['target'],149979,001,2024-10-10_14h55.26.519,visual_search_exp,2024.1.5,None,2024-10-10 14h55.35.663578 +0530,
102,0,102,0,221.01930940000057,,220.97732990000077,5,221.01930940000057,221.01930940000057,0.028795499998523155,222.74302139999963,[-0.27],[-0.2833333333333333],[1],[0],[0],[1.7375695999999152],['target'],149979,001,2024-10-10_14h55.26.519,visual_search_exp,2024.1.5,None,2024-10-10 14h55.35.663578 +0530,
103,0,103,0,222.82118679999985,,222.74884700000075,10,222.82118679999985,222.82118679999985,0.05397690000063449,223.89172959999996,[-0.45],[-0.18833333333333332],[1],[0],[0],[1.0895868000006885],['target'],149979,001,2024-10-10_14h55.26.519,visual_search_exp,2024.1.5,None,2024-10-10 14h55.35.663578 +0530,
104,0,104,0,223.9564663000001,,223.89746200000081,5,223.9564663000001,223.9564663000001,0.02954200000021956,226.07813990000068,[-0.115],[0.27166666666666667],[1],[0],[0],[2.1517487000000983],['target'],149979,001,2024-10-10_14h55.26.519,visual_search_exp,2024.1.5,None,2024-10-10 14h55.35.663578 +0530,
105,0,105,0,226.14152000000104,,226.0839044000004,5,226.14152000000104,226.14152000000104,0.02860519999921962,227.4966768000013,[0.15166666666666667],[0.05333333333333334],[1],[0],[0],[1.3848084999990533],['target'],149979,001,2024-10-10_14h55.26.519,visual_search_exp,2024.1.5,None,2024-10-10 14h55.35.663578 +0530,
106,0,106,0,227.5773609000007,,227.50256550000086,10,227.5773609000007,227.5773609000007,0.052271300000938936,228.78034099999968,[0.09],[-0.03666666666666667],[1],[0],[0],[1.2260526999998547],['target'],149979,001,2024-10-10_14h55.26.519,visual_search_exp,2024.1.5,None,2024-10-10 14h55.35.663578 +0530,
107,0,107,0,228.86131800000112,,228.78620010000122,10,228.86131800000112,228.86131800000112,0.052854600000500795,230.4336241000001,[-0.016666666666666666],[-0.4683333333333333],[1],[0],[0],[1.5951815999997052],['target'],149979,001,2024-10-10_14h55.26.519,visual_search_exp,2024.1.5,None,2024-10-10 14h55.35.663578 +0530,
108,0,108,0,230.4977882000003,,230.43935150000107,5,230.4977882000003,230.4977882000003,0.026966999999785912,231.9677614000011,[0.19666666666666666],[0.32666666666666666],[1],[0],[0],[1.5020868999999948],['target'],149979,001,2024-10-10_14h55.26.519,visual_search_exp,2024.1.5,None,2024-10-10 14h55.35.663578 +0530,
109,0,109,0,232.0480045000004,,231.97365850000097,10,232.0480045000004,232.0480045000004,0.050433200000043144,234.45243140000093,[-0.11333333333333333],[0.4166666666666667],[1],[0],[0],[2.4290023000012297],['target'],149979,001,2024-10-10_14h55.26.519,visual_search_exp,2024.1.5,None,2024-10-10 14h55.35.663578 +0530,
110,0,110,0,234.55192370000077,,234.45833070000117,10,234.55192370000077,234.55192370000077,0.05477249999967171,237.00611730000128,[-0.02],[0.385],[1],[0],[0],[2.4936266999993677],['target'],149979,001,2024-10-10_14h55.26.519,visual_search_exp,2024.1.5,None,2024-10-10 14h55.35.663578 +0530,
111,0,111,0,237.08721510000032,,237.01203730000088,10,237.08721510000032,237.08721510000032,0.05270380000001751,240.00948880000033,[-0.36333333333333334],[-0.25833333333333336],[1],[0],[0],[2.9454241000003094],['target'],149979,001,2024-10-10_14h55.26.519,visual_search_exp,2024.1.5,None,2024-10-10 14h55.35.663578 +0530,
112,0,112,0,240.09091050000097,,240.01546400000007,10,240.09091050000097,240.09091050000097,0.05459049999990384,241.89472690000002,[0.155],[0.44333333333333336],[1],[0],[0],[1.825197100000878],['target'],149979,001,2024-10-10_14h55.26.519,visual_search_exp,2024.1.5,None,2024-10-10 14h55.35.663578 +0530,
113,0,113,0,241.99281730000075,,241.9007717000004,10,241.99281730000075,241.99281730000075,0.05757470000025933,244.4321235999996,[0.2833333333333333],[-0.2966666666666667],[1],[0],[0],[2.4743741000002046],['target'],149979,001,2024-10-10_14h55.26.519,visual_search_exp,2024.1.5,None,2024-10-10 14h55.35.663578 +0530,
114,0,114,0,244.5122879999999,,244.4378252000006,10,244.5122879999999,244.5122879999999,0.0526702999995905,247.48429940000096,[0.19166666666666668],[-0.44333333333333336],[1],[0],[0],[2.9943621000002167],['target'],149979,001,2024-10-10_14h55.26.519,visual_search_exp,2024.1.5,None,2024-10-10 14h55.35.663578 +0530,
115,0,115,0,247.56522330000007,,247.48990849999973,10,247.56522330000007,247.56522330000007,0.051886999999624095,249.56957180000063,[0.11166666666666666],[-0.23666666666666666],[1],[0],[0],[2.0284011000003375],['target'],149979,001,2024-10-10_14h55.26.519,visual_search_exp,2024.1.5,None,2024-10-10 14h55.35.663578 +0530,
116,0,116,0,249.61741150000125,,249.57530720000068,5,249.61741150000125,249.61741150000125,0.02733069999885629,252.15666930000043,[-0.35],[0.49666666666666665],[1],[0],[0],[2.5546772000016063],['target'],149979,001,2024-10-10_14h55.26.519,visual_search_exp,2024.1.5,None,2024-10-10 14h55.35.663578 +0530,
117,0,117,0,252.23746700000083,,252.16251040000134,10,252.23746700000083,252.23746700000083,0.054054700000051525,254.77510679999978,[0.20166666666666666],[0.33166666666666667],[1],[0],[0],[2.55921219999982],['target'],149979,001,2024-10-10_14h55.26.519,visual_search_exp,2024.1.5,None,2024-10-10 14h55.35.663578 +0530,
118,0,118,0,254.85629789999984,,254.78092090000064,10,254.85629789999984,254.85629789999984,0.05361769999944954,256.77801460000046,[-0.12833333333333333],[0.28833333333333333],[1],[0],[0],[1.9440684000001056],['target'],149979,001,2024-10-10_14h55.26.519,visual_search_exp,2024.1.5,None,2024-10-10 14h55.35.663578 +0530,
119,0,119,0,256.8592922000007,,256.7837873999997,10,256.8592922000007,256.8592922000007,0.05246900000020105,258.2125192000003,[-0.36833333333333335],[0.38166666666666665],[1],[0],[0],[1.376808600000004],['target'],149979,001,2024-10-10_14h55.26.519,visual_search_exp,2024.1.5,None,2024-10-10 14h55.35.663578 +0530,
120,0,120,0,258.26015110000117,,258.2186479000011,5,258.26015110000117,258.26015110000117,0.02832709999893268,261.0664944,[0.4066666666666667],[-0.42333333333333334],[1],[0],[0],[2.820155200000954],['target'],149979,001,2024-10-10_14h55.26.519,visual_search_exp,2024.1.5,None,2024-10-10 14h55.35.663578 +0530,
121,0,121,0,261.1131729000008,,261.0723472000009,5,261.1131729000008,261.1131729000008,0.0289028999995935,262.8352699999996,[0.37],[-0.13833333333333334],[1],[0],[0],[1.7346621999986382],['target'],149979,001,2024-10-10_14h55.26.519,visual_search_exp,2024.1.5,None,2024-10-10 14h55.35.663578 +0530,
122,0,122,0,262.8818174000007,,262.8410550999997,5,262.8818174000007,262.8818174000007,0.027326400000674766,264.2030425000012,[0.08],[0.195],[1],[0],[0],[1.3352324000006774],['target'],149979,001,2024-10-10_14h55.26.519,visual_search_exp,2024.1.5,None,2024-10-10 14h55.35.663578 +0530,
123,0,123,0,264.25006960000064,,264.2089579000003,5,264.25006960000064,264.25006960000064,0.02734480000071926,266.4397428000011,[-0.41333333333333333],[-0.345],[1],[0],[0],[2.2042289999990317],['target'],149979,001,2024-10-10_14h55.26.519,visual_search_exp,2024.1.5,None,2024-10-10 14h55.35.663578 +0530,
124,0,124,0,266.51930040000116,,266.4463143000012,10,266.51930040000116,266.51930040000116,0.05109450000054494,269.59105810000074,[0.175],[-0.3],[1],[0],[0],[3.094481899999664],['target'],149979,001,2024-10-10_14h55.26.519,visual_search_exp,2024.1.5,None,2024-10-10 14h55.35.663578 +0530,
125,0,125,0,269.6731896000001,,269.59694839999975,10,269.6731896000001,269.6731896000001,0.05224540000017441,271.77779120000014,[-0.3566666666666667],[0.36],[1],[0],[0],[2.129224799999065],['target'],149979,001,2024-10-10_14h55.26.519,visual_search_exp,2024.1.5,None,2024-10-10 14h55.35.663578 +0530,
126,0,126,0,271.8250141999997,,271.783827700001,5,271.8250141999997,271.8250141999997,0.026820900000529946,274.46418470000026,[-0.39166666666666666],[0.095],[1],[0],[0],[2.654153600000427],['target'],149979,001,2024-10-10_14h55.26.519,visual_search_exp,2024.1.5,None,2024-10-10 14h55.35.663578 +0530,
127,0,127,0,274.51116770000044,,274.4700087000001,5,274.51116770000044,274.51116770000044,0.027536600000530598,277.5347434000014,[-0.0033333333333333335],[-0.4766666666666667],[1],[0],[0],[3.0377277999996295],['target'],149979,001,2024-10-10_14h55.26.519,visual_search_exp,2024.1.5,None,2024-10-10 14h55.35.663578 +0530,
128,0,128,0,277.6145651000006,,277.5407517000003,10,277.6145651000006,277.6145651000006,0.052881300000080955,280.1863420999998,[0.4116666666666667],[-0.195],[1],[0],[0],[2.5933922000003804],['target'],149979,001,2024-10-10_14h55.26.519,visual_search_exp,2024.1.5,None,2024-10-10 14h55.35.663578 +0530,
129,0,129,0,280.2681693000013,,280.1921493000009,10,280.2681693000013,280.2681693000013,0.05442190000030678,282.6733297999999,[-0.27166666666666667],[-0.275],[1],[0],[0],[2.4273596000002726],['target'],149979,001,2024-10-10_14h55.26.519,visual_search_exp,2024.1.5,None,2024-10-10 14h55.35.663578 +0530,
130,0,130,0,282.7536015000005,,282.67905360000077,10,282.7536015000005,282.7536015000005,0.05165179999858083,285.1922000000013,[0.39166666666666666],[-0.19333333333333333],[1],[0],[0],[2.462108099998659],['target'],149979,001,2024-10-10_14h55.26.519,visual_search_exp,2024.1.5,None,2024-10-10 14h55.35.663578 +0530,
131,0,131,0,285.2740869999998,,285.19783670000106,10,285.2740869999998,285.2740869999998,0.05066699999952107,289.4134501000008,[0.27166666666666667],[0.023333333333333334],[1],[0],[0],[4.1655671000007715],['target'],149979,001,2024-10-10_14h55.26.519,visual_search_exp,2024.1.5,None,2024-10-10 14h55.35.663578 +0530,
132,0,132,0,289.4608562000012,,289.4192483000006,5,289.4608562000012,289.4608562000012,0.027581199999985984,291.4328290000012,[-0.26666666666666666],[-0.165],[1],[0],[0],[1.986624600000141],['target'],149979,001,2024-10-10_14h55.26.519,visual_search_exp,2024.1.5,None,2024-10-10 14h55.35.663578 +0530,
133,0,133,0,291.4796640000004,,291.4385355000013,5,291.4796640000004,291.4796640000004,0.027026100000512088,293.5350360000011,[0.09833333333333333],[0.34833333333333333],[1],[0],[0],[2.070083299999169],['target'],149979,001,2024-10-10_14h55.26.519,visual_search_exp,2024.1.5,None,2024-10-10 14h55.35.663578 +0530,
134,0,134,0,293.58197180000025,,293.5407952000005,5,293.58197180000025,293.58197180000025,0.028008400000544498,295.6539451000008,[-0.09333333333333334],[0.03333333333333333],[1],[0],[0],[2.085847099999228],['target'],149979,001,2024-10-10_14h55.26.519,visual_search_exp,2024.1.5,None,2024-10-10 14h55.35.663578 +0530,
135,0,135,0,295.73445560000073,,295.6597333999998,10,295.73445560000073,295.73445560000073,0.05200709999917308,297.7222063999998,[0.045],[-0.3016666666666667],[1],[0],[0],[2.0111347999991267],['target'],149979,001,2024-10-10_14h55.26.519,visual_search_exp,2024.1.5,None,2024-10-10 14h55.35.663578 +0530,
136,0,136,0,297.804081100001,,297.728061400001,10,297.804081100001,297.804081100001,0.05276570000023639,301.10931119999987,[0.44166666666666665],[-0.245],[1],[0],[0],[3.329080299999987],['target'],149979,001,2024-10-10_14h55.26.519,visual_search_exp,2024.1.5,None,2024-10-10 14h55.35.663578 +0530,
137,0,137,0,301.2072317000002,,301.1151645000009,10,301.2072317000002,301.2072317000002,0.053261299999576295,303.9122939000008,[0.135],[0.34],[1],[0],[0],[2.744528500001252],['target'],149979,001,2024-10-10_14h55.26.519,visual_search_exp,2024.1.5,None,2024-10-10 14h55.35.663578 +0530,
138,0,138,0,304.01076060000014,,303.9182183000012,10,304.01076060000014,304.01076060000014,0.055826100000558654,305.91472350000004,[-0.10166666666666667],[0.02666666666666667],[1],[0],[0],[1.94120760000078],['target'],149979,001,2024-10-10_14h55.26.519,visual_search_exp,2024.1.5,None,2024-10-10 14h55.35.663578 +0530,
139,0,139,0,305.96234449999974,,305.9205441000013,5,305.96234449999974,305.96234449999974,0.02740289999928791,307.04965340000126,[-0.18],[-0.355],[1],[0],[0],[1.1023803999996744],['target'],149979,001,2024-10-10_14h55.26.519,visual_search_exp,2024.1.5,None,2024-10-10 14h55.35.663578 +0530,
140,0,140,0,307.0969087000012,,307.0553783000014,5,307.0969087000012,307.0969087000012,0.02734980000059295,309.45372860000134,[0.2683333333333333],[0.24833333333333332],[1],[0],[0],[2.3716310000017984],['target'],149979,001,2024-10-10_14h55.26.519,visual_search_exp,2024.1.5,None,2024-10-10 14h55.35.663578 +0530,
141,0,141,0,309.5328523999997,,309.45936489999985,10,309.5328523999997,309.5328523999997,0.05416460000014922,311.1037369000005,[-0.07833333333333334],[-0.36833333333333335],[1],[0],[0],[1.5907759999990958],['target'],149979,001,2024-10-10_14h55.26.519,visual_search_exp,2024.1.5,None,2024-10-10 14h55.35.663578 +0530,
142,0,142,0,311.1514098000007,,311.1093643000004,5,311.1514098000007,311.1514098000007,0.02725020000070799,313.69180810000034,[-0.455],[0.3433333333333333],[1],[0],[0],[2.555742399999872],['target'],149979,001,2024-10-10_14h55.26.519,visual_search_exp,2024.1.5,None,2024-10-10 14h55.35.663578 +0530,
143,0,143,0,313.7715468000006,,313.69758189999993,10,313.7715468000006,313.7715468000006,0.05230190000111179,316.47670260000086,[-0.475],[-0.33166666666666667],[1],[0],[0],[2.7272974000006798],['target'],149979,001,2024-10-10_14h55.26.519,visual_search_exp,2024.1.5,None,2024-10-10 14h55.35.663578 +0530,
144,0,144,0,316.52643830000125,,316.48268800000005,5,316.52643830000125,316.52643830000125,0.028867400000308407,318.01232210000126,[0.31333333333333335],[0.15333333333333332],[1],[0],[0],[1.5014456999997492],['target'],149979,001,2024-10-10_14h55.26.519,visual_search_exp,2024.1.5,None,2024-10-10 14h55.35.663578 +0530,
145,0,145,0,318.09245680000095,,318.0179255000003,10,318.09245680000095,318.09245680000095,0.04982469999958994,321.16521360000115,[0.06],[0.4583333333333333],[1],[0],[0],[3.0980122000000847],['target'],149979,001,2024-10-10_14h55.26.519,visual_search_exp,2024.1.5,None,2024-10-10 14h55.35.663578 +0530,
146,0,146,0,321.2473737,,321.1709382000008,10,321.2473737,321.2473737,0.0523840999994718,322.5498853000008,[-0.43],[0.235],[1],[0],[0],[1.3271793000003527],['target'],149979,001,2024-10-10_14h55.26.519,visual_search_exp,2024.1.5,None,2024-10-10 14h55.35.663578 +0530,
147,0,147,0,322.63052620000053,,322.55576760000076,10,322.63052620000053,322.63052620000053,0.05479659999946307,324.7019375,[-0.24333333333333335],[-0.37],[1],[0],[0],[2.0919582999995328],['target'],149979,001,2024-10-10_14h55.26.519,visual_search_exp,2024.1.5,None,2024-10-10 14h55.35.663578 +0530,
148,0,148,0,324.7668458999997,,324.7117360000011,5,324.7668458999997,324.7668458999997,0.034738000000288594,325.87120270000014,[0.023333333333333334],[0.22166666666666668],[1],[0],[0],[1.126143099998444],['target'],149979,001,2024-10-10_14h55.26.519,visual_search_exp,2024.1.5,None,2024-10-10 14h55.35.663578 +0530,
149,0,149,0,325.9510850000006,,325.87696870000036,10,325.9510850000006,325.9510850000006,0.05102939999960654,327.4546913000013,[-0.03333333333333333],[0.155],[1],[0],[0],[1.5274234999997134],['target'],149979,001,2024-10-10_14h55.26.519,visual_search_exp,2024.1.5,None,2024-10-10 14h55.35.663578 +0530,
150,0,150,0,327.50254270000005,,327.46061139999983,5,327.50254270000005,327.50254270000005,0.02787720000014815,329.8420463000002,[-0.345],[-0.041666666666666664],[1],[0],[0],[2.354310100001385],['target'],149979,001,2024-10-10_14h55.26.519,visual_search_exp,2024.1.5,None,2024-10-10 14h55.35.663578 +0530,
151,0,151,0,329.92251880000003,,329.8478449000013,10,329.92251880000003,329.92251880000003,0.05203799999981129,331.9928780000009,[-0.135],[0.42],[1],[0],[0],[2.0936294000002817],['target'],149979,001,2024-10-10_14h55.26.519,visual_search_exp,2024.1.5,None,2024-10-10 14h55.35.663578 +0530,
152,0,152,0,332.07423780000136,,331.9986774000008,10,332.07423780000136,332.07423780000136,0.05457170000045153,333.24501750000127,[0.015],[0.16333333333333333],[1],[0],[0],[1.192471000000296],['target'],149979,001,2024-10-10_14h55.26.519,visual_search_exp,2024.1.5,None,2024-10-10 14h55.35.663578 +0530,
153,0,153,0,333.29216989999986,,333.2508092999997,5,333.29216989999986,333.29216989999986,0.02705950000017765,334.79701019999993,[0.37833333333333335],[-0.18],[1],[0],[0],[1.5198548999997001],['target'],149979,001,2024-10-10_14h55.26.519,visual_search_exp,2024.1.5,None,2024-10-10 14h55.35.663578 +0530,
154,0,154,0,334.84379980000085,,334.802722800001,5,334.84379980000085,334.84379980000085,0.02625650000118185,336.86593879999964,[0.485],[0.465],[1],[0],[0],[2.037524500001382],['target'],149979,001,2024-10-10_14h55.26.519,visual_search_exp,2024.1.5,None,2024-10-10 14h55.35.663578 +0530,
155,0,155,0,336.9471771000008,,336.8715924999997,10,336.9471771000008,336.9471771000008,0.051016200000958634,345.92450610000014,[0.013333333333333334],[-0.018333333333333333],[1],[0],[0],[9.002490499999112],['target'],149979,001,2024-10-10_14h55.26.519,visual_search_exp,2024.1.5,None,2024-10-10 14h55.35.663578 +0530,
156,0,156,0,346.00613260000137,,345.93025920000036,10,346.00613260000137,346.00613260000137,0.05483930000082182,348.6461067,[-0.29],[-0.035],[1],[0],[0],[2.6616111000003],['target'],149979,001,2024-10-10_14h55.26.519,visual_search_exp,2024.1.5,None,2024-10-10 14h55.35.663578 +0530,
157,0,157,0,348.69244270000127,,348.65179100000023,5,348.69244270000127,348.69244270000127,0.02713729999959469,350.06382640000083,[-0.1],[0.058333333333333334],[1],[0],[0],[1.3854664999998931],['target'],149979,001,2024-10-10_14h55.26.519,visual_search_exp,2024.1.5,None,2024-10-10 14h55.35.663578 +0530,
158,0,158,0,350.1447291000004,,350.069642800001,10,350.1447291000004,350.1447291000004,0.053858999999647494,351.5815027999997,[0.055],[0.3516666666666667],[1],[0],[0],[1.4586331999998947],['target'],149979,001,2024-10-10_14h55.26.519,visual_search_exp,2024.1.5,None,2024-10-10 14h55.35.663578 +0530,
159,0,159,0,351.6289606999999,,351.58731330000046,5,351.6289606999999,351.6289606999999,0.028054899999915506,352.76677700000073,[0.11666666666666667],[-0.011666666666666667],[1],[0],[0],[1.1520297999995819],['target'],149979,001,2024-10-10_14h55.26.519,visual_search_exp,2024.1.5,None,2024-10-10 14h55.35.663578 +0530,
160,0,160,0,352.8468479000003,,352.77260320000096,10,352.8468479000003,352.8468479000003,0.05333480000081181,354.81853390000106,[-0.205],[0.043333333333333335],[1],[0],[0],[1.993177199999991],['target'],149979,001,2024-10-10_14h55.26.519,visual_search_exp,2024.1.5,None,2024-10-10 14h55.35.663578 +0530,
161,0,161,0,354.8658991000011,,354.82447350000075,5,354.8658991000011,354.8658991000011,0.02860270000019227,356.3217089000009,[0.255],[-0.05],[1],[0],[0],[1.4693282999996882],['target'],149979,001,2024-10-10_14h55.26.519,visual_search_exp,2024.1.5,None,2024-10-10 14h55.35.663578 +0530,
162,0,162,0,356.40147980000074,,356.32773930000076,10,356.40147980000074,356.40147980000074,0.053689799999119714,357.33948710000004,[0.125],[-0.03666666666666667],[1],[0],[0],[0.9585277999995014],['target'],149979,001,2024-10-10_14h55.26.519,visual_search_exp,2024.1.5,None,2024-10-10 14h55.35.663578 +0530,
163,0,163,0,357.40181570000095,,357.3516701999997,5,357.40181570000095,357.40181570000095,0.03693849999945087,359.3074635000012,[-0.4816666666666667],[-0.45666666666666667],[1],[0],[0],[1.9216433000001416],['target'],149979,001,2024-10-10_14h55.26.519,visual_search_exp,2024.1.5,None,2024-10-10 14h55.35.663578 +0530,
164,0,164,0,359.3882819999999,,359.3132161000012,10,359.3882819999999,359.3882819999999,0.05347230000006675,361.4589033000011,[0.155],[-0.13],[1],[0],[0],[2.0928538999996817],['target'],149979,001,2024-10-10_14h55.26.519,visual_search_exp,2024.1.5,None,2024-10-10 14h55.35.663578 +0530,
165,0,165,0,361.5064527000013,,361.46490220000123,5,361.5064527000013,361.5064527000013,0.02860549999968498,363.4454196000006,[-0.345],[-0.028333333333333332],[1],[0],[0],[1.9525795999998081],['target'],149979,001,2024-10-10_14h55.26.519,visual_search_exp,2024.1.5,None,2024-10-10 14h55.35.663578 +0530,
166,0,166,0,363.54178219999994,,363.4512355000006,10,363.54178219999994,363.54178219999994,0.055644600000960054,365.0798727000001,[0.33166666666666667],[-0.005],[1],[0],[0],[1.5735733000001346],['target'],149979,001,2024-10-10_14h55.26.519,visual_search_exp,2024.1.5,None,2024-10-10 14h55.35.663578 +0530,
167,0,167,0,365.1448388000008,,365.0856968999997,5,365.1448388000008,365.1448388000008,0.02975259999948321,366.8830899000004,[0.465],[-0.44166666666666665],[1],[0],[0],[1.7682782000010775],['target'],149979,001,2024-10-10_14h55.26.519,visual_search_exp,2024.1.5,None,2024-10-10 14h55.35.663578 +0530,
168,0,168,0,366.9622190000009,,366.8891741000007,10,366.9622190000009,366.9622190000009,0.05397309999898425,368.5674138000013,[0.145],[-0.18666666666666668],[1],[0],[0],[1.6249943000002531],['target'],149979,001,2024-10-10_14h55.26.519,visual_search_exp,2024.1.5,None,2024-10-10 14h55.35.663578 +0530,
169,0,169,0,368.63172889999987,,368.5732790000002,5,368.63172889999987,368.63172889999987,0.03019539999877452,370.1357712000008,[-0.43],[-0.03666666666666667],[1],[0],[0],[1.5329389000016818],['target'],149979,001,2024-10-10_14h55.26.519,visual_search_exp,2024.1.5,None,2024-10-10 14h55.35.663578 +0530,
170,0,170,0,370.1826065000005,,370.1415586000003,5,370.1826065000005,370.1826065000005,0.027747799998905975,372.38831070000015,[0.30833333333333335],[0.21166666666666667],[1],[0],[0],[2.2196748000005755],['target'],149979,001,2024-10-10_14h55.26.519,visual_search_exp,2024.1.5,None,2024-10-10 14h55.35.663578 +0530,
171,0,171,0,372.4516315000001,,372.3941082000001,5,372.4516315000001,372.4516315000001,0.028679399998509325,373.70608540000103,[0.08],[-0.065],[1],[0],[0],[1.2838905999997223],['target'],149979,001,2024-10-10_14h55.26.519,visual_search_exp,2024.1.5,None,2024-10-10 14h55.35.663578 +0530,
172,0,172,0,373.78716760000134,,373.7118257000002,10,373.78716760000134,373.78716760000134,0.05100709999896935,374.8899190000011,[0.21166666666666667],[-0.2683333333333333],[1],[0],[0],[1.1276732999995147],['target'],149979,001,2024-10-10_14h55.26.519,visual_search_exp,2024.1.5,None,2024-10-10 14h55.35.663578 +0530,
173,0,173,0,374.9376663000003,,374.8956897999997,5,374.9376663000003,374.9376663000003,0.0286221000005753,376.7439052999998,[-0.09333333333333334],[-0.2683333333333333],[1],[0],[0],[1.820243099999061],['target'],149979,001,2024-10-10_14h55.26.519,visual_search_exp,2024.1.5,None,2024-10-10 14h55.35.663578 +0530,
174,0,174,0,376.83973549999973,,376.74967540000034,10,376.83973549999973,376.83973549999973,0.05403889999979583,379.112067,[0.17166666666666666],[0.41333333333333333],[1],[0],[0],[2.309001100000387],['target'],149979,001,2024-10-10_14h55.26.519,visual_search_exp,2024.1.5,None,2024-10-10 14h55.35.663578 +0530,
175,0,175,0,379.1771628000006,,379.11784740000076,5,379.1771628000006,379.1771628000006,0.027264300000751973,381.61540070000046,[0.445],[0.48333333333333334],[1],[0],[0],[2.470923799999582],['target'],149979,001,2024-10-10_14h55.26.519,visual_search_exp,2024.1.5,None,2024-10-10 14h55.35.663578 +0530,
176,0,176,0,381.6950358000013,,381.62115489999996,10,381.6950358000013,381.6950358000013,0.053964999999152496,384.3683921000011,[-0.11666666666666667],[-0.19],[1],[0],[0],[2.6936380000006466],['target'],149979,001,2024-10-10_14h55.26.519,visual_search_exp,2024.1.5,None,2024-10-10 14h55.35.663578 +0530,
177,0,177,0,384.4325602000008,,384.37545239999963,5,384.4325602000008,384.4325602000008,0.029736399999819696,385.75227520000044,[-0.14666666666666667],[-0.2916666666666667],[1],[0],[0],[1.348138299999846],['target'],149979,001,2024-10-10_14h55.26.519,visual_search_exp,2024.1.5,None,2024-10-10 14h55.35.663578 +0530,
178,0,178,0,385.79972009999983,,385.7581186999996,5,385.79972009999983,385.79972009999983,0.02677419999963604,386.7037497000001,[-0.16666666666666666],[-0.06333333333333334],[1],[0],[0],[0.9194943999991665],['target'],149979,001,2024-10-10_14h55.26.519,visual_search_exp,2024.1.5,None,2024-10-10 14h55.35.663578 +0530,
179,0,179,0,386.7683386000008,,386.70980990000135,5,386.7683386000008,386.7683386000008,0.027437599999757367,388.10583750000114,[0.17],[-0.31333333333333335],[1],[0],[0],[1.3693101000008028],['target'],149979,001,2024-10-10_14h55.26.519,visual_search_exp,2024.1.5,None,2024-10-10 14h55.35.663578 +0530,
180,0,180,0,388.1855437000013,,388.1130959000002,10,388.1855437000013,388.1855437000013,0.054231199999776436,389.89051560000007,[0.20833333333333334],[0.24833333333333332],[1],[0],[0],[1.7245550000006915],['target'],149979,001,2024-10-10_14h55.26.519,visual_search_exp,2024.1.5,None,2024-10-10 14h55.35.663578 +0530,
181,0,181,0,389.95537830000103,,389.8963961999998,5,389.95537830000103,389.95537830000103,0.028449300001739175,392.02661799999987,[0.4066666666666667],[0.07833333333333334],[1],[0],[0],[2.10236470000018],['target'],149979,001,2024-10-10_14h55.26.519,visual_search_exp,2024.1.5,None,2024-10-10 14h55.35.663578 +0530,
182,0,182,0,392.0731289000014,,392.03293360000134,5,392.0731289000014,392.0731289000014,0.028055599999788683,394.0282963999998,[0.19166666666666668],[-0.4033333333333333],[1],[0],[0],[1.967975800000204],['target'],149979,001,2024-10-10_14h55.26.519,visual_search_exp,2024.1.5,None,2024-10-10 14h55.35.663578 +0530,
183,0,183,0,394.10877830000027,,394.0342251000002,10,394.10877830000027,394.10877830000027,0.054550599999856786,395.7800626999997,[0.025],[0.15833333333333333],[1],[0],[0],[1.6919049000007362],['target'],149979,001,2024-10-10_14h55.26.519,visual_search_exp,2024.1.5,None,2024-10-10 14h55.35.663578 +0530,
184,0,184,0,395.82754960000057,,395.7859368999998,5,395.82754960000057,395.82754960000057,0.027583099999901606,397.15006280000125,[0.15666666666666668],[0.34833333333333333],[1],[0],[0],[1.337114299998575],['target'],149979,001,2024-10-10_14h55.26.519,visual_search_exp,2024.1.5,None,2024-10-10 14h55.35.663578 +0530,
185,0,185,0,397.21292970000104,,397.1558997000011,5,397.21292970000104,397.21292970000104,0.02812379999886616,398.7342426000014,[0.4666666666666667],[0.36666666666666664],[1],[0],[0],[1.5508180000015273],['target'],149979,001,2024-10-10_14h55.26.519,visual_search_exp,2024.1.5,None,2024-10-10 14h55.35.663578 +0530,
186,0,186,0,398.8138188000012,,398.74093410000023,10,398.8138188000012,398.8138188000012,0.05160020000039367,399.9511358,[0.12833333333333333],[-0.16666666666666666],[1],[0],[0],[1.159234099999594],['target'],149979,001,2024-10-10_14h55.26.519,visual_search_exp,2024.1.5,None,2024-10-10 14h55.35.663578 +0530,
187,0,187,0,400.0324536999997,,399.95690339999965,10,400.0324536999997,400.0324536999997,0.05316620000121475,401.8037295000013,[-0.4633333333333333],[-0.11333333333333333],[1],[0],[0],[1.7943273000000772],['target'],149979,001,2024-10-10_14h55.26.519,visual_search_exp,2024.1.5,None,2024-10-10 14h55.35.663578 +0530,
188,0,188,0,401.8505690000002,,401.80955170000016,5,401.8505690000002,401.8505690000002,0.027780099999290542,403.0217396000007,[0.29333333333333333],[0.03666666666666667],[1],[0],[0],[1.1850328000000445],['target'],149979,001,2024-10-10_14h55.26.519,visual_search_exp,2024.1.5,None,2024-10-10 14h55.35.663578 +0530,
189,0,189,0,403.085051,,403.02775269999984,5,403.085051,403.085051,0.02829130000100122,404.7406867000009,[-0.22833333333333333],[-0.15333333333333332],[1],[0],[0],[1.6854303999989497],['target'],149979,001,2024-10-10_14h55.26.519,visual_search_exp,2024.1.5,None,2024-10-10 14h55.35.663578 +0530,
190,0,190,0,404.8211080000001,,404.74665060000007,10,404.8211080000001,404.8211080000001,0.05496619999939867,405.9238378000009,[0.2866666666666667],[-0.056666666666666664],[1],[0],[0],[1.1229888999987452],['target'],149979,001,2024-10-10_14h55.26.519,visual_search_exp,2024.1.5,None,2024-10-10 14h55.35.663578 +0530,
191,0,191,0,405.9717851000005,,405.9297230000011,5,405.9717851000005,405.9717851000005,0.028785499998775776,408.27787420000095,[-0.3566666666666667],[-0.31666666666666665],[1],[0],[0],[2.3200722000001406],['target'],149979,001,2024-10-10_14h55.26.519,visual_search_exp,2024.1.5,None,2024-10-10 14h55.35.663578 +0530,
192,0,192,0,408.32434430000103,,408.283669800001,5,408.32434430000103,408.32434430000103,0.027670299999954295,411.51399180000044,[-0.30666666666666664],[0.43666666666666665],[1],[0],[0],[3.203332799999771],['target'],149979,001,2024-10-10_14h55.26.519,visual_search_exp,2024.1.5,None,2024-10-10 14h55.35.663578 +0530,
193,0,193,0,411.5949442000001,,411.51975440000024,10,411.5949442000001,411.5949442000001,0.05147370000122464,414.4008709000009,[-0.23333333333333334],[-0.22333333333333333],[1],[0],[0],[2.8303558000006888],['target'],149979,001,2024-10-10_14h55.26.519,visual_search_exp,2024.1.5,None,2024-10-10 14h55.35.663578 +0530,
194,0,194,0,414.4655160000002,,414.40653740000016,5,414.4655160000002,414.4655160000002,0.02986360000068089,415.3518270000004,[-0.26666666666666666],[0.25833333333333336],[1],[0],[0],[0.9161411999994016],['target'],149979,001,2024-10-10_14h55.26.519,visual_search_exp,2024.1.5,None,2024-10-10 14h55.35.663578 +0530,
195,0,195,0,415.39861740000015,,415.3576489999996,5,415.39861740000015,415.39861740000015,0.028226399999766727,416.66997489999994,[0.325],[-0.03],[1],[0],[0],[1.2846779000010429],['target'],149979,001,2024-10-10_14h55.26.519,visual_search_exp,2024.1.5,None,2024-10-10 14h55.35.663578 +0530,
196,0,196,0,416.75033260000055,,416.6755828000005,10,416.75033260000055,416.75033260000055,0.052743299998837756,420.33943999999974,[-0.12833333333333333],[0.45],[1],[0],[0],[3.611773299999186],['target'],149979,001,2024-10-10_14h55.26.519,visual_search_exp,2024.1.5,None,2024-10-10 14h55.35.663578 +0530,
197,0,197,0,420.3874015000001,,420.3453688999998,5,420.3874015000001,420.3874015000001,0.028372700000545592,421.7922748000001,[-0.38],[-0.12666666666666668],[1],[0],[0],[1.41920250000112],['target'],149979,001,2024-10-10_14h55.26.519,visual_search_exp,2024.1.5,None,2024-10-10 14h55.35.663578 +0530,
198,0,198,0,421.87319800000114,,421.7979341999999,10,421.87319800000114,421.87319800000114,0.0518222999999125,424.22724910000034,[0.39],[-0.043333333333333335],[1],[0],[0],[2.3781383000005007],['target'],149979,001,2024-10-10_14h55.26.519,visual_search_exp,2024.1.5,None,2024-10-10 14h55.35.663578 +0530,
199,0,199,0,424.3083354999999,,424.2329785000002,10,424.3083354999999,424.3083354999999,0.05242959999850427,428.6152965000001,[0.02],[0.47],[1],[0],[0],[4.330493199999182],['target'],149979,001,2024-10-10_14h55.26.519,visual_search_exp,2024.1.5,None,2024-10-10 14h55.35.663578 +0530,
