trials.thisRepN,trials.thisTrialN,trials.thisN,trials.thisIndex,thisRow.t,notes,trial.started,num_distr,fixation.started,target.started,mouse.started,trial.stopped,mouse.x,mouse.y,mouse.leftButton,mouse.midButton,mouse.rightButton,mouse.time,mouse.clicked_name,participant,session,date,expName,psychopyVersion,frameRate,expStart,
0,0,0,0,0.1355383999980404,,0.0269120999982988,10,0.1355383999980404,0.1355383999980404,0.10119920000215643,2.607425799997145,[0.013333333333333334],[0.3416666666666667],[1],[0],[0],[2.504798199999641],['target'],251423,001,2024-10-10_16h08.06.627,visual_search_exp,2024.1.5,None,2024-10-10 16h08.16.018858 +0530,
1,0,1,0,2.8729905000000144,,2.621214599999803,10,2.8729905000000144,2.8729905000000144,0.22933419999753824,4.475928299998486,[-0.16166666666666665],[0.45166666666666666],[1],[0],[0],[1.6280432999992627],['target'],251423,001,2024-10-10_16h08.06.627,visual_search_exp,2024.1.5,None,2024-10-10 16h08.16.018858 +0530,
2,0,2,0,4.558078099998966,,4.48177719999876,10,4.558078099998966,4.558078099998966,0.05794840000089607,6.397471799999039,[-0.25],[-0.37166666666666665],[1],[0],[0],[1.858070400001452],['target'],251423,001,2024-10-10_16h08.06.627,visual_search_exp,2024.1.5,None,2024-10-10 16h08.16.018858 +0530,
3,0,3,0,6.493847599998844,,6.410567799997807,10,6.493847599998844,6.493847599998844,0.06361309999920195,7.896683399998437,[-0.13833333333333334],[-0.31],[1],[0],[0],[1.4249091999990924],['target'],251423,001,2024-10-10_16h08.06.627,visual_search_exp,2024.1.5,None,2024-10-10 16h08.16.018858 +0530,
4,0,4,0,7.9944546000006085,,7.9027335999999195,10,7.9944546000006085,7.9944546000006085,0.05898769999839715,9.68216399999801,[-0.03666666666666667],[0.34],[1],[0],[0],[1.72101720000137],['target'],251423,001,2024-10-10_16h08.06.627,visual_search_exp,2024.1.5,None,2024-10-10 16h08.16.018858 +0530,
5,0,5,0,9.746535599999333,,9.688008199998876,5,9.746535599999333,9.746535599999333,0.028737999997247243,11.953161999997974,[0.4766666666666667],[-0.3383333333333333],[1],[0],[0],[2.2368769999993674],['target'],251423,001,2024-10-10_16h08.06.627,visual_search_exp,2024.1.5,None,2024-10-10 16h08.16.018858 +0530,
6,0,6,0,12.049089399999502,,11.959406899997703,10,12.049089399999502,12.049089399999502,0.060712999998941086,15.604620899997826,[0.10666666666666667],[-0.13666666666666666],[1],[0],[0],[3.585409499999514],['target'],251423,001,2024-10-10_16h08.06.627,visual_search_exp,2024.1.5,None,2024-10-10 16h08.16.018858 +0530,
7,0,7,0,15.65321269999913,,15.61035400000037,5,15.65321269999913,15.65321269999913,0.028891200003272388,18.108514199997444,[-0.335],[0.195],[1],[0],[0],[2.469921299998532],['target'],251423,001,2024-10-10_16h08.06.627,visual_search_exp,2024.1.5,None,2024-10-10 16h08.16.018858 +0530,
8,0,8,0,18.17153419999886,,18.11422649999804,5,18.17153419999886,18.17153419999886,0.030157299999700626,19.676447899997584,[0.013333333333333334],[0.4116666666666667],[1],[0],[0],[1.532700499999919],['target'],251423,001,2024-10-10_16h08.06.627,visual_search_exp,2024.1.5,None,2024-10-10 16h08.16.018858 +0530,
9,0,9,0,19.74027550000028,,19.682235699998273,5,19.74027550000028,19.74027550000028,0.03033990000039921,21.79561610000019,[-0.021666666666666667],[-0.43833333333333335],[1],[0],[0],[2.083617000000231],['target'],251423,001,2024-10-10_16h08.06.627,visual_search_exp,2024.1.5,None,2024-10-10 16h08.16.018858 +0530,
10,0,10,0,21.860099999998056,,21.801471499999025,5,21.860099999998056,21.860099999998056,0.028906700001243735,24.948957799999334,[-0.43666666666666665],[-0.24166666666666667],[1],[0],[0],[3.1190247000013187],['target'],251423,001,2024-10-10_16h08.06.627,visual_search_exp,2024.1.5,None,2024-10-10 16h08.16.018858 +0530,
11,0,11,0,25.013117099999363,,24.95608379999976,5,25.013117099999363,25.013117099999363,0.03565520000120159,26.233692599998903,[-0.455],[-0.021666666666666667],[1],[0],[0],[1.2428497000000789],['target'],251423,001,2024-10-10_16h08.06.627,visual_search_exp,2024.1.5,None,2024-10-10 16h08.16.018858 +0530,
12,0,12,0,26.331245199999103,,26.24183659999835,10,26.331245199999103,26.331245199999103,0.060957499998039566,28.352143299998716,[-0.05],[-0.20166666666666666],[1],[0],[0],[2.0505341999996745],['target'],251423,001,2024-10-10_16h08.06.627,visual_search_exp,2024.1.5,None,2024-10-10 16h08.16.018858 +0530,
13,0,13,0,28.449903299999278,,28.35802739999781,10,28.449903299999278,28.449903299999278,0.061968900001375005,30.15681119999863,[-0.33],[-0.19333333333333333],[1],[0],[0],[1.7373701999968034],['target'],251423,001,2024-10-10_16h08.06.627,visual_search_exp,2024.1.5,None,2024-10-10 16h08.16.018858 +0530,
14,0,14,0,30.218590399999812,,30.16299529999742,5,30.218590399999812,30.218590399999812,0.02985629999966477,31.640105399997992,[0.22333333333333333],[0.195],[1],[0],[0],[1.4479190000020026],['target'],251423,001,2024-10-10_16h08.06.627,visual_search_exp,2024.1.5,None,2024-10-10 16h08.16.018858 +0530,
15,0,15,0,31.704024999999092,,31.646039799998107,5,31.704024999999092,31.704024999999092,0.029632499998115236,33.37496669999746,[-0.051666666666666666],[-0.04666666666666667],[1],[0],[0],[1.6999933000006422],['target'],251423,001,2024-10-10_16h08.06.627,visual_search_exp,2024.1.5,None,2024-10-10 16h08.16.018858 +0530,
16,0,16,0,33.43863909999709,,33.38078789999781,5,33.43863909999709,33.43863909999709,0.02940100000341772,34.97731930000009,[-0.058333333333333334],[0.3433333333333333],[1],[0],[0],[1.567793400001392],['target'],251423,001,2024-10-10_16h08.06.627,visual_search_exp,2024.1.5,None,2024-10-10 16h08.16.018858 +0530,
17,0,17,0,35.04023169999709,,34.98317069999757,5,35.04023169999709,35.04023169999709,0.02923709999959101,36.31120329999976,[-0.03166666666666667],[0.4633333333333333],[1],[0],[0],[1.2992612999987614],['target'],251423,001,2024-10-10_16h08.06.627,visual_search_exp,2024.1.5,None,2024-10-10 16h08.16.018858 +0530,
18,0,18,0,36.39315109999734,,36.31698989999859,10,36.39315109999734,36.39315109999734,0.05408199999874341,38.997503999999026,[-0.495],[-0.36333333333333334],[1],[0],[0],[2.6270793999974558],['target'],251423,001,2024-10-10_16h08.06.627,visual_search_exp,2024.1.5,None,2024-10-10 16h08.16.018858 +0530,
19,0,19,0,39.061832100000174,,39.00333939999837,5,39.061832100000174,39.061832100000174,0.03147709999757353,41.00036489999911,[-0.3466666666666667],[0.1],[1],[0],[0],[1.966153100001975],['target'],251423,001,2024-10-10_16h08.06.627,visual_search_exp,2024.1.5,None,2024-10-10 16h08.16.018858 +0530,
20,0,20,0,41.09712379999837,,41.00601689999894,10,41.09712379999837,41.09712379999837,0.05799560000014026,42.634510100000625,[0.0033333333333333335],[0.12833333333333333],[1],[0],[0],[1.5710792999998375],['target'],251423,001,2024-10-10_16h08.06.627,visual_search_exp,2024.1.5,None,2024-10-10 16h08.16.018858 +0530,
21,0,21,0,42.732399699998496,,42.64043739999761,10,42.732399699998496,42.732399699998496,0.056868699997721706,45.187025999999605,[0.38],[0.07],[1],[0],[0],[2.4903558000005432],['target'],251423,001,2024-10-10_16h08.06.627,visual_search_exp,2024.1.5,None,2024-10-10 16h08.16.018858 +0530,
22,0,22,0,45.26842919999763,,45.19283390000055,10,45.26842919999763,45.26842919999763,0.056571400000393623,47.62381180000011,[0.03166666666666667],[0.3466666666666667],[1],[0],[0],[2.374917600001936],['target'],251423,001,2024-10-10_16h08.06.627,visual_search_exp,2024.1.5,None,2024-10-10 16h08.16.018858 +0530,
23,0,23,0,47.72127030000047,,47.62980809999863,10,47.72127030000047,47.72127030000047,0.06020729999727337,48.94120850000036,[0.04666666666666667],[0.20833333333333334],[1],[0],[0],[1.2517883000000438],['target'],251423,001,2024-10-10_16h08.06.627,visual_search_exp,2024.1.5,None,2024-10-10 16h08.16.018858 +0530,
24,0,24,0,49.00602049999725,,48.94689069999731,5,49.00602049999725,49.00602049999725,0.034570899999380345,50.378250099998695,[0.041666666666666664],[-0.008333333333333333],[1],[0],[0],[1.3973799999985204],['target'],251423,001,2024-10-10_16h08.06.627,visual_search_exp,2024.1.5,None,2024-10-10 16h08.16.018858 +0530,
25,0,25,0,50.441716299999825,,50.384203999998135,5,50.441716299999825,50.441716299999825,0.028671400003076997,52.28035420000015,[0.49333333333333335],[-0.235],[1],[0],[0],[1.868169699999271],['target'],251423,001,2024-10-10_16h08.06.627,visual_search_exp,2024.1.5,None,2024-10-10 16h08.16.018858 +0530,
26,0,26,0,52.343424499998946,,52.2859389999976,5,52.343424499998946,52.343424499998946,0.027326200000970857,54.282025199998316,[-0.39166666666666666],[-0.4033333333333333],[1],[0],[0],[1.9693885000015143],['target'],251423,001,2024-10-10_16h08.06.627,visual_search_exp,2024.1.5,None,2024-10-10 16h08.16.018858 +0530,
27,0,27,0,54.34472359999927,,54.288091799997346,5,54.34472359999927,54.34472359999927,0.02874370000063209,56.04945450000014,[-0.38666666666666666],[-0.475],[1],[0],[0],[1.7333308000015677],['target'],251423,001,2024-10-10_16h08.06.627,visual_search_exp,2024.1.5,None,2024-10-10 16h08.16.018858 +0530,
28,0,28,0,56.1639757999983,,56.05905459999849,10,56.1639757999983,56.1639757999983,0.07556990000011865,57.48520429999917,[-0.28833333333333333],[-0.07],[1],[0],[0],[1.3518612000007124],['target'],251423,001,2024-10-10_16h08.06.627,visual_search_exp,2024.1.5,None,2024-10-10 16h08.16.018858 +0530,
29,0,29,0,57.61649430000034,,57.49612879999768,10,57.61649430000034,57.61649430000034,0.08095659999889904,58.786200599999574,[0.13],[0.23333333333333334],[1],[0],[0],[1.210351100002299],['target'],251423,001,2024-10-10_16h08.06.627,visual_search_exp,2024.1.5,None,2024-10-10 16h08.16.018858 +0530,
30,0,30,0,58.88305639999817,,58.79204910000044,10,58.88305639999817,58.88305639999817,0.058600899999873945,60.771451000000525,[0.37333333333333335],[-0.465],[1],[0],[0],[1.921470600002067],['target'],251423,001,2024-10-10_16h08.06.627,visual_search_exp,2024.1.5,None,2024-10-10 16h08.16.018858 +0530,
31,0,31,0,60.86856799999805,,60.7772879999975,10,60.86856799999805,60.86856799999805,0.06065149999994901,62.27324849999786,[0.11333333333333333],[0.03833333333333333],[1],[0],[0],[1.4359997999999905],['target'],251423,001,2024-10-10_16h08.06.627,visual_search_exp,2024.1.5,None,2024-10-10 16h08.16.018858 +0530,
32,0,32,0,62.37094159999833,,62.279010799997195,10,62.37094159999833,62.37094159999833,0.05561870000019553,64.64308840000012,[0.41],[0.17166666666666666],[1],[0],[0],[2.308943400003045],['target'],251423,001,2024-10-10_16h08.06.627,visual_search_exp,2024.1.5,None,2024-10-10 16h08.16.018858 +0530,
33,0,33,0,64.70714439999938,,64.64905670000007,5,64.70714439999938,64.70714439999938,0.028376700000080746,66.46348869999929,[-0.10166666666666667],[-0.25166666666666665],[1],[0],[0],[1.786594100001821],['target'],251423,001,2024-10-10_16h08.06.627,visual_search_exp,2024.1.5,None,2024-10-10 16h08.16.018858 +0530,
34,0,34,0,66.57596829999966,,66.47236770000018,10,66.57596829999966,66.57596829999966,0.0682059000027948,68.98011539999789,[-0.40166666666666667],[-0.395],[1],[0],[0],[2.4410724000008486],['target'],251423,001,2024-10-10_16h08.06.627,visual_search_exp,2024.1.5,None,2024-10-10 16h08.16.018858 +0530,
35,0,35,0,69.0775735999996,,68.9860200999974,10,69.0775735999996,69.0775735999996,0.05709729999944102,70.71576469999854,[0.03333333333333333],[-0.058333333333333334],[1],[0],[0],[1.6732775999989826],['target'],251423,001,2024-10-10_16h08.06.627,visual_search_exp,2024.1.5,None,2024-10-10 16h08.16.018858 +0530,
36,0,36,0,70.8133162999984,,70.72151139999914,10,70.8133162999984,70.8133162999984,0.05987729999833391,71.95217849999972,[0.12],[0.08],[1],[0],[0],[1.1712774999978137],['target'],251423,001,2024-10-10_16h08.06.627,visual_search_exp,2024.1.5,None,2024-10-10 16h08.16.018858 +0530,
37,0,37,0,72.03140630000053,,71.96194529999775,5,72.03140630000053,72.03140630000053,0.03553250000186381,74.35401060000004,[0.34],[0.26166666666666666],[1],[0],[0],[2.358063100000436],['target'],251423,001,2024-10-10_16h08.06.627,visual_search_exp,2024.1.5,None,2024-10-10 16h08.16.018858 +0530,
38,0,38,0,74.45134909999979,,74.35983320000014,10,74.45134909999979,74.45134909999979,0.060986499996943166,76.40491750000001,[-0.31333333333333335],[-0.2733333333333333],[1],[0],[0],[1.984637900000962],['target'],251423,001,2024-10-10_16h08.06.627,visual_search_exp,2024.1.5,None,2024-10-10 16h08.16.018858 +0530,
39,0,39,0,76.50341889999982,,76.41079700000046,10,76.50341889999982,76.50341889999982,0.05764149999959045,78.27412709999771,[0.055],[-0.11],[1],[0],[0],[1.80632599999808],['target'],251423,001,2024-10-10_16h08.06.627,visual_search_exp,2024.1.5,None,2024-10-10 16h08.16.018858 +0530,
40,0,40,0,78.3877496999994,,78.28428119999808,10,78.3877496999994,78.3877496999994,0.06331970000246656,80.09196999999767,[0.3416666666666667],[0.10166666666666667],[1],[0],[0],[1.7460609000008844],['target'],251423,001,2024-10-10_16h08.06.627,visual_search_exp,2024.1.5,None,2024-10-10 16h08.16.018858 +0530,
41,0,41,0,80.15766289999738,,80.09776000000056,5,80.15766289999738,80.15766289999738,0.030503599999065045,81.36069420000058,[0.20666666666666667],[-0.11],[1],[0],[0],[1.2330781999989995],['target'],251423,001,2024-10-10_16h08.06.627,visual_search_exp,2024.1.5,None,2024-10-10 16h08.16.018858 +0530,
42,0,42,0,81.40864249999868,,81.36643279999771,5,81.40864249999868,81.40864249999868,0.029550100000051316,84.14737409999725,[0.4816666666666667],[0.4533333333333333],[1],[0],[0],[2.751970099998289],['target'],251423,001,2024-10-10_16h08.06.627,visual_search_exp,2024.1.5,None,2024-10-10 16h08.16.018858 +0530,
43,0,43,0,84.2440874999993,,84.15303420000055,10,84.2440874999993,84.2440874999993,0.05668159999913769,86.43512639999972,[-0.295],[-0.235],[1],[0],[0],[2.225721299997531],['target'],251423,001,2024-10-10_16h08.06.627,visual_search_exp,2024.1.5,None,2024-10-10 16h08.16.018858 +0530,
44,0,44,0,86.54666939999879,,86.44757349999782,10,86.54666939999879,86.54666939999879,0.06960149999940768,88.51911420000033,[-0.415],[-0.41333333333333333],[1],[0],[0],[2.004063299998961],['target'],251423,001,2024-10-10_16h08.06.627,visual_search_exp,2024.1.5,None,2024-10-10 16h08.16.018858 +0530,
45,0,45,0,88.61570419999771,,88.52486399999907,10,88.61570419999771,88.61570419999771,0.05863309999767807,94.09147780000058,[-0.056666666666666664],[0.47333333333333333],[1],[0],[0],[5.508637800001452],['target'],251423,001,2024-10-10_16h08.06.627,visual_search_exp,2024.1.5,None,2024-10-10 16h08.16.018858 +0530,
46,0,46,0,94.15577349999876,,94.09743510000044,5,94.15577349999876,94.15577349999876,0.0297136999979557,97.29561299999841,[0.32166666666666666],[0.4533333333333333],[1],[0],[0],[3.1689628999993147],['target'],251423,001,2024-10-10_16h08.06.627,visual_search_exp,2024.1.5,None,2024-10-10 16h08.16.018858 +0530,
47,0,47,0,97.3584469999987,,97.30542019999848,5,97.3584469999987,97.3584469999987,0.03730679999716813,98.57946719999745,[0.2916666666666667],[0.12],[1],[0],[0],[1.2383888000003935],['target'],251423,001,2024-10-10_16h08.06.627,visual_search_exp,2024.1.5,None,2024-10-10 16h08.16.018858 +0530,
48,0,48,0,98.64323289999811,,98.58524489999763,5,98.64323289999811,98.64323289999811,0.03099569999903906,100.28219439999884,[0.3983333333333333],[-0.365],[1],[0],[0],[1.6666255999989517],['target'],251423,001,2024-10-10_16h08.06.627,visual_search_exp,2024.1.5,None,2024-10-10 16h08.16.018858 +0530,
49,0,49,0,100.37902779999786,,100.28810369999701,10,100.37902779999786,100.37902779999786,0.05609249999906751,101.6830994999982,[0.09],[-0.3016666666666667],[1],[0],[0],[1.3394646999986435],['target'],251423,001,2024-10-10_16h08.06.627,visual_search_exp,2024.1.5,None,2024-10-10 16h08.16.018858 +0530,
50,0,50,0,101.74732839999706,,101.68918850000045,5,101.74732839999706,101.74732839999706,0.03154949999952805,103.85254029999851,[0.3516666666666667],[0.45666666666666667],[1],[0],[0],[2.1324266999981774],['target'],251423,001,2024-10-10_16h08.06.627,visual_search_exp,2024.1.5,None,2024-10-10 16h08.16.018858 +0530,
51,0,51,0,103.94896609999705,,103.85815309999816,10,103.94896609999705,103.94896609999705,0.05833829999755835,105.9217413999977,[-0.295],[0.06166666666666667],[1],[0],[0],[2.0058356000008644],['target'],251423,001,2024-10-10_16h08.06.627,visual_search_exp,2024.1.5,None,2024-10-10 16h08.16.018858 +0530,
52,0,52,0,105.98557909999727,,105.92925009999817,5,105.98557909999727,105.98557909999727,0.04131929999857675,107.6397083999982,[0.04666666666666667],[-0.28833333333333333],[1],[0],[0],[1.6698766000008618],['target'],251423,001,2024-10-10_16h08.06.627,visual_search_exp,2024.1.5,None,2024-10-10 16h08.16.018858 +0530,
53,0,53,0,107.73657019999882,,107.64554990000033,10,107.73657019999882,107.73657019999882,0.059281399997416884,110.00914999999804,[-0.09],[-0.14833333333333334],[1],[0],[0],[2.3046762000012677],['target'],251423,001,2024-10-10_16h08.06.627,visual_search_exp,2024.1.5,None,2024-10-10 16h08.16.018858 +0530,
54,0,54,0,110.12237230000028,,110.02074929999799,10,110.12237230000028,110.12237230000028,0.08377200000177254,112.27750119999837,[0.44166666666666665],[-0.005],[1],[0],[0],[2.1748919999990903],['target'],251423,001,2024-10-10_16h08.06.627,visual_search_exp,2024.1.5,None,2024-10-10 16h08.16.018858 +0530,
55,0,55,0,112.37533599999733,,112.28352719999748,10,112.37533599999733,112.37533599999733,0.05512119999912102,115.08251549999841,[-0.2633333333333333],[-0.29],[1],[0],[0],[2.7442530000007537],['target'],251423,001,2024-10-10_16h08.06.627,visual_search_exp,2024.1.5,None,2024-10-10 16h08.16.018858 +0530,
56,0,56,0,115.17815469999914,,115.08838579999792,10,115.17815469999914,115.17815469999914,0.05508460000055493,116.58350779999819,[-0.40166666666666667],[-0.1],[1],[0],[0],[1.4405865000007907],['target'],251423,001,2024-10-10_16h08.06.627,visual_search_exp,2024.1.5,None,2024-10-10 16h08.16.018858 +0530,
57,0,57,0,116.6471180999979,,116.58968470000036,5,116.6471180999979,116.6471180999979,0.029593899998872075,118.20050970000011,[0.075],[0.36833333333333335],[1],[0],[0],[1.581903300000704],['target'],251423,001,2024-10-10_16h08.06.627,visual_search_exp,2024.1.5,None,2024-10-10 16h08.16.018858 +0530,
58,0,58,0,118.24867879999874,,118.20621140000003,5,118.24867879999874,118.24867879999874,0.02952509999886388,119.9522810999988,[-0.27166666666666667],[-0.31],[1],[0],[0],[1.7171783999983745],['target'],251423,001,2024-10-10_16h08.06.627,visual_search_exp,2024.1.5,None,2024-10-10 16h08.16.018858 +0530,
59,0,59,0,120.01677909999853,,119.95801949999804,5,120.01677909999853,120.01677909999853,0.03384920000098646,121.20441369999753,[0.22166666666666668],[0.415],[1],[0],[0],[1.2132106000026397],['target'],251423,001,2024-10-10_16h08.06.627,visual_search_exp,2024.1.5,None,2024-10-10 16h08.16.018858 +0530,
60,0,60,0,121.30145469999843,,121.21000889999777,10,121.30145469999843,121.30145469999843,0.058801900002436014,123.3738431999991,[-0.13833333333333334],[0.44166666666666665],[1],[0],[0],[2.1054761999985203],['target'],251423,001,2024-10-10_16h08.06.627,visual_search_exp,2024.1.5,None,2024-10-10 16h08.16.018858 +0530,
61,0,61,0,123.47165829999722,,123.37983750000058,10,123.47165829999722,123.47165829999722,0.05755700000008801,126.97797899999932,[0.44166666666666665],[-0.4033333333333333],[1],[0],[0],[3.541231000002881],['target'],251423,001,2024-10-10_16h08.06.627,visual_search_exp,2024.1.5,None,2024-10-10 16h08.16.018858 +0530,
62,0,62,0,127.04102019999846,,126.9836510999994,5,127.04102019999846,127.04102019999846,0.027611800000158837,128.63062659999923,[0.21333333333333335],[0.38333333333333336],[1],[0],[0],[1.6199438000003283],['target'],251423,001,2024-10-10_16h08.06.627,visual_search_exp,2024.1.5,None,2024-10-10 16h08.16.018858 +0530,
63,0,63,0,128.69273260000045,,128.63636979999865,5,128.69273260000045,128.69273260000045,0.028296799999225186,130.04750109999804,[0.29333333333333333],[0.335],[1],[0],[0],[1.3835195999999996],['target'],251423,001,2024-10-10_16h08.06.627,visual_search_exp,2024.1.5,None,2024-10-10 16h08.16.018858 +0530,
64,0,64,0,130.09412569999768,,130.0531142999971,5,130.09412569999768,130.09412569999768,0.028604099999938626,133.2175591999985,[0.08833333333333333],[0.46166666666666667],[1],[0],[0],[3.136493199999677],['target'],251423,001,2024-10-10_16h08.06.627,visual_search_exp,2024.1.5,None,2024-10-10 16h08.16.018858 +0530,
65,0,65,0,133.2642124999984,,133.22332639999877,5,133.2642124999984,133.2642124999984,0.029115099998307414,135.22047620000012,[0.31666666666666665],[-0.07833333333333334],[1],[0],[0],[1.9685486999987916],['target'],251423,001,2024-10-10_16h08.06.627,visual_search_exp,2024.1.5,None,2024-10-10 16h08.16.018858 +0530,
66,0,66,0,135.31731659999787,,135.22649789999923,10,135.31731659999787,135.31731659999787,0.057127899999613874,136.77185669999744,[0.11],[0.25666666666666665],[1],[0],[0],[1.4887488999993366],['target'],251423,001,2024-10-10_16h08.06.627,visual_search_exp,2024.1.5,None,2024-10-10 16h08.16.018858 +0530,
67,0,67,0,136.8682649000002,,136.7777305999989,10,136.8682649000002,136.8682649000002,0.05705459999808227,138.4388966000006,[0.41333333333333333],[0.3433333333333333],[1],[0],[0],[1.6047509999989416],['target'],251423,001,2024-10-10_16h08.06.627,visual_search_exp,2024.1.5,None,2024-10-10 16h08.16.018858 +0530,
68,0,68,0,138.50340849999702,,138.4447865000002,5,138.50340849999702,138.50340849999702,0.030137400000967318,139.91050039999755,[-0.32],[0.035],[1],[0],[0],[1.4361182000029658],['target'],251423,001,2024-10-10_16h08.06.627,visual_search_exp,2024.1.5,None,2024-10-10 16h08.16.018858 +0530,
69,0,69,0,140.00522830000045,,139.9165753999987,10,140.00522830000045,140.00522830000045,0.056430600001476705,141.89301369999885,[-0.49333333333333335],[0.2966666666666667],[1],[0],[0],[1.9206942000018898],['target'],251423,001,2024-10-10_16h08.06.627,visual_search_exp,2024.1.5,None,2024-10-10 16h08.16.018858 +0530,
70,0,70,0,141.99115379999785,,141.89875799999936,10,141.99115379999785,141.99115379999785,0.05850940000163973,143.7301038000005,[-0.17166666666666666],[-0.275],[1],[0],[0],[1.773458199997549],['target'],251423,001,2024-10-10_16h08.06.627,visual_search_exp,2024.1.5,None,2024-10-10 16h08.16.018858 +0530,
71,0,71,0,143.7933344999983,,143.7358533000006,5,143.7933344999983,143.7933344999983,0.028879599998617778,145.91530039999998,[-0.15166666666666667],[0.48333333333333334],[1],[0],[0],[2.151163800001086],['target'],251423,001,2024-10-10_16h08.06.627,visual_search_exp,2024.1.5,None,2024-10-10 16h08.16.018858 +0530,
72,0,72,0,146.0125404999999,,145.92137489999732,10,146.0125404999999,146.0125404999999,0.05563560000155121,149.28535179999744,[-0.325],[0.4716666666666667],[1],[0],[0],[3.3089766000011878],['target'],251423,001,2024-10-10_16h08.06.627,visual_search_exp,2024.1.5,None,2024-10-10 16h08.16.018858 +0530,
73,0,73,0,149.34997569999905,,149.29208449999715,5,149.34997569999905,149.34997569999905,0.028645799997320864,151.3393475999983,[0.20666666666666667],[0.22166666666666668],[1],[0],[0],[2.019296399997984],['target'],251423,001,2024-10-10_16h08.06.627,visual_search_exp,2024.1.5,None,2024-10-10 16h08.16.018858 +0530,
74,0,74,0,151.40102489999845,,151.3451540999995,5,151.40102489999845,151.40102489999845,0.029252599997562356,152.9395177999977,[0.46166666666666667],[0.32666666666666666],[1],[0],[0],[1.565710399998352],['target'],251423,001,2024-10-10_16h08.06.627,visual_search_exp,2024.1.5,None,2024-10-10 16h08.16.018858 +0530,
75,0,75,0,153.03690909999932,,152.94523750000008,10,153.03690909999932,153.03690909999932,0.055455500001698965,155.776292999999,[-0.445],[-0.38666666666666666],[1],[0],[0],[2.7760965999987093],['target'],251423,001,2024-10-10_16h08.06.627,visual_search_exp,2024.1.5,None,2024-10-10 16h08.16.018858 +0530,
76,0,76,0,155.8724934999991,,155.78239259999827,10,155.8724934999991,155.8724934999991,0.057040799998503644,158.44568739999886,[0.19333333333333333],[-0.12833333333333333],[1],[0],[0],[2.606771899998421],['target'],251423,001,2024-10-10_16h08.06.627,visual_search_exp,2024.1.5,None,2024-10-10 16h08.16.018858 +0530,
77,0,77,0,158.5429073999985,,158.4517753,10,158.5429073999985,158.5429073999985,0.05488669999976992,160.68014229999972,[-0.47333333333333333],[0.43],[1],[0],[0],[2.1739646999994875],['target'],251423,001,2024-10-10_16h08.06.627,visual_search_exp,2024.1.5,None,2024-10-10 16h08.16.018858 +0530,
78,0,78,0,160.744781399997,,160.68603040000016,5,160.744781399997,160.744781399997,0.030495599999994738,163.3023635999998,[-0.39],[-0.33166666666666667],[1],[0],[0],[2.586229099997581],['target'],251423,001,2024-10-10_16h08.06.627,visual_search_exp,2024.1.5,None,2024-10-10 16h08.16.018858 +0530,
79,0,79,0,163.39813389999836,,163.30823500000042,10,163.39813389999836,163.39813389999836,0.05899119999958202,165.3369982999975,[0.3616666666666667],[-0.275],[1],[0],[0],[1.9702810000017053],['target'],251423,001,2024-10-10_16h08.06.627,visual_search_exp,2024.1.5,None,2024-10-10 16h08.16.018858 +0530,
80,0,80,0,165.43394350000017,,165.34264959999928,10,165.43394350000017,165.43394350000017,0.05673129999922821,167.1562477999978,[-0.3333333333333333],[0.20166666666666666],[1],[0],[0],[1.7574177000024065],['target'],251423,001,2024-10-10_16h08.06.627,visual_search_exp,2024.1.5,None,2024-10-10 16h08.16.018858 +0530,
81,0,81,0,167.2520459999978,,167.16194890000043,10,167.2520459999978,167.2520459999978,0.057509500002197456,169.18980389999706,[-0.26166666666666666],[-0.06],[1],[0],[0],[1.970920700001443],['target'],251423,001,2024-10-10_16h08.06.627,visual_search_exp,2024.1.5,None,2024-10-10 16h08.16.018858 +0530,
82,0,82,0,169.28875049999988,,169.19594879999931,10,169.28875049999988,169.28875049999988,0.05510879999928875,170.92680499999915,[-0.17],[-0.15833333333333333],[1],[0],[0],[1.6763036000011198],['target'],251423,001,2024-10-10_16h08.06.627,visual_search_exp,2024.1.5,None,2024-10-10 16h08.16.018858 +0530,
83,0,83,0,171.02246530000048,,170.93321339999966,10,171.02246530000048,171.02246530000048,0.05695220000052359,173.3957945000002,[-0.47333333333333333],[-0.05],[1],[0],[0],[2.4061478000003262],['target'],251423,001,2024-10-10_16h08.06.627,visual_search_exp,2024.1.5,None,2024-10-10 16h08.16.018858 +0530,
84,0,84,0,173.4924764999996,,173.4020199000006,10,173.4924764999996,173.4924764999996,0.058627599999454105,174.84612930000003,[-0.24333333333333335],[0.2816666666666667],[1],[0],[0],[1.386163499999384],['target'],251423,001,2024-10-10_16h08.06.627,visual_search_exp,2024.1.5,None,2024-10-10 16h08.16.018858 +0530,
85,0,85,0,174.91014019999784,,174.85210539999753,5,174.91014019999784,174.91014019999784,0.030972799999290146,177.55139469999995,[-0.04833333333333333],[0.03],[1],[0],[0],[2.668828500001837],['target'],251423,001,2024-10-10_16h08.06.627,visual_search_exp,2024.1.5,None,2024-10-10 16h08.16.018858 +0530,
86,0,86,0,177.6472565999975,,177.5572663999992,10,177.6472565999975,177.6472565999975,0.05883440000252449,179.38368029999765,[-0.325],[0.05333333333333334],[1],[0],[0],[1.7682468999992125],['target'],251423,001,2024-10-10_16h08.06.627,visual_search_exp,2024.1.5,None,2024-10-10 16h08.16.018858 +0530,
87,0,87,0,179.44826599999942,,179.38958970000022,5,179.44826599999942,179.44826599999942,0.030881400001817383,181.10408109999844,[-0.07833333333333334],[-0.051666666666666666],[1],[0],[0],[1.684153400001378],['target'],251423,001,2024-10-10_16h08.06.627,visual_search_exp,2024.1.5,None,2024-10-10 16h08.16.018858 +0530,
88,0,88,0,181.2017468999984,,181.1099918999971,10,181.2017468999984,181.2017468999984,0.05673440000100527,182.50431670000035,[0.03],[-0.1],[1],[0],[0],[1.3382710000005318],['target'],251423,001,2024-10-10_16h08.06.627,visual_search_exp,2024.1.5,None,2024-10-10 16h08.16.018858 +0530,
89,0,89,0,182.58508169999914,,182.51015049999842,10,182.58508169999914,182.58508169999914,0.054413199999544304,184.1231106999985,[-0.12],[-0.075],[1],[0],[0],[1.5592205000029935],['target'],251423,001,2024-10-10_16h08.06.627,visual_search_exp,2024.1.5,None,2024-10-10 16h08.16.018858 +0530,
90,0,90,0,184.18749109999771,,184.1290474999987,5,184.18749109999771,184.18749109999771,0.02913270000135526,185.44146170000022,[0.09666666666666666],[-0.18],[1],[0],[0],[1.2838368999982777],['target'],251423,001,2024-10-10_16h08.06.627,visual_search_exp,2024.1.5,None,2024-10-10 16h08.16.018858 +0530,
91,0,91,0,185.48857479999788,,185.4473184999988,5,185.48857479999788,185.48857479999788,0.028831300001911586,186.77721089999977,[0.04666666666666667],[0.245],[1],[0],[0],[1.3016443000014988],['target'],251423,001,2024-10-10_16h08.06.627,visual_search_exp,2024.1.5,None,2024-10-10 16h08.16.018858 +0530,
92,0,92,0,186.87364909999815,,186.78282330000002,10,186.87364909999815,186.87364909999815,0.05452240000158781,187.70966339999723,[0.06333333333333334],[0.21833333333333332],[1],[0],[0],[0.8729163999996672],['target'],251423,001,2024-10-10_16h08.06.627,visual_search_exp,2024.1.5,None,2024-10-10 16h08.16.018858 +0530,
93,0,93,0,187.7940395000005,,187.71550819999902,10,187.7940395000005,187.7940395000005,0.05406399999992573,189.8297335999996,[0.33666666666666667],[0.3566666666666667],[1],[0],[0],[2.060830700000224],['target'],251423,001,2024-10-10_16h08.06.627,visual_search_exp,2024.1.5,None,2024-10-10 16h08.16.018858 +0530,
94,0,94,0,189.87730609999926,,189.83544939999774,5,189.87730609999926,189.87730609999926,0.029152999999496387,191.28245999999854,[0.105],[-0.41333333333333333],[1],[0],[0],[1.4184992000009515],['target'],251423,001,2024-10-10_16h08.06.627,visual_search_exp,2024.1.5,None,2024-10-10 16h08.16.018858 +0530,
95,0,95,0,191.37883560000046,,191.28824619999796,10,191.37883560000046,191.37883560000046,0.055856900002254406,196.01979219999703,[0.06],[0.46166666666666667],[1],[0],[0],[4.676324199997907],['target'],251423,001,2024-10-10_16h08.06.627,visual_search_exp,2024.1.5,None,2024-10-10 16h08.16.018858 +0530,
96,0,96,0,196.11711749999813,,196.02586059999885,10,196.11711749999813,196.11711749999813,0.05546469999899273,203.02627049999865,[0.165],[0.3983333333333333],[1],[0],[0],[6.945576099999016],['target'],251423,001,2024-10-10_16h08.06.627,visual_search_exp,2024.1.5,None,2024-10-10 16h08.16.018858 +0530,
97,0,97,0,203.09178569999858,,203.0321277999974,5,203.09178569999858,203.09178569999858,0.029545100001996616,204.26205919999848,[0.2966666666666667],[0.09666666666666666],[1],[0],[0],[1.2011143999989145],['target'],251423,001,2024-10-10_16h08.06.627,visual_search_exp,2024.1.5,None,2024-10-10 16h08.16.018858 +0530,
98,0,98,0,204.34226639999906,,204.26760139999897,10,204.34226639999906,204.34226639999906,0.052429299998038914,206.14710019999984,[-0.19666666666666666],[-0.165],[1],[0],[0],[1.827662200001214],['target'],251423,001,2024-10-10_16h08.06.627,visual_search_exp,2024.1.5,None,2024-10-10 16h08.16.018858 +0530,
99,0,99,0,206.24439239999992,,206.15268979999746,10,206.24439239999992,206.24439239999992,0.06003509999936796,207.81537539999772,[-0.255],[0.355],[1],[0],[0],[1.6032396000009612],['target'],251423,001,2024-10-10_16h08.06.627,visual_search_exp,2024.1.5,None,2024-10-10 16h08.16.018858 +0530,
100,0,100,0,207.9128845999985,,207.82113019999815,10,207.9128845999985,207.9128845999985,0.0569859000024735,209.00167560000045,[-0.1],[0.27666666666666667],[1],[0],[0],[1.1241980000013427],['target'],251423,001,2024-10-10_16h08.06.627,visual_search_exp,2024.1.5,None,2024-10-10 16h08.16.018858 +0530,
101,0,101,0,209.064170499998,,209.00755539999955,5,209.064170499998,209.064170499998,0.03012229999876581,211.78866949999792,[0.26],[0.4683333333333333],[1],[0],[0],[2.751577400002134],['target'],251423,001,2024-10-10_16h08.06.627,visual_search_exp,2024.1.5,None,2024-10-10 16h08.16.018858 +0530,
102,0,102,0,211.88441089999833,,211.7945190999999,10,211.88441089999833,211.88441089999833,0.05700720000095316,213.47366559999864,[0.085],[0.043333333333333335],[1],[0],[0],[1.622491699999955],['target'],251423,001,2024-10-10_16h08.06.627,visual_search_exp,2024.1.5,None,2024-10-10 16h08.16.018858 +0530,
103,0,103,0,213.5369052999995,,213.48520859999917,5,213.5369052999995,213.5369052999995,0.037000000000261934,215.65999729999749,[-0.035],[-0.225],[1],[0],[0],[2.139443599997321],['target'],251423,001,2024-10-10_16h08.06.627,visual_search_exp,2024.1.5,None,2024-10-10 16h08.16.018858 +0530,
104,0,104,0,215.73829339999793,,215.66853849999825,5,215.73829339999793,215.73829339999793,0.041369200000190176,217.3605951999998,[0.21666666666666667],[-0.25],[1],[0],[0],[1.6523426999992807],['target'],251423,001,2024-10-10_16h08.06.627,visual_search_exp,2024.1.5,None,2024-10-10 16h08.16.018858 +0530,
105,0,105,0,217.4405530999975,,217.36638139999923,10,217.4405530999975,217.4405530999975,0.05252729999847361,220.1787325999976,[-0.265],[-0.4],[1],[0],[0],[2.760462700000062],['target'],251423,001,2024-10-10_16h08.06.627,visual_search_exp,2024.1.5,None,2024-10-10 16h08.16.018858 +0530,
106,0,106,0,220.2272524,,220.18448480000006,5,220.2272524,220.2272524,0.029664300000149524,221.63260609999998,[0.01],[-0.4666666666666667],[1],[0],[0],[1.4191188000004331],['target'],251423,001,2024-10-10_16h08.06.627,visual_search_exp,2024.1.5,None,2024-10-10 16h08.16.018858 +0530,
107,0,107,0,221.69525259999864,,221.63843769999949,5,221.69525259999864,221.69525259999864,0.029005399999732617,223.3004636000005,[-0.04666666666666667],[0.39],[1],[0],[0],[1.633691800001543],['target'],251423,001,2024-10-10_16h08.06.627,visual_search_exp,2024.1.5,None,2024-10-10 16h08.16.018858 +0530,
108,0,108,0,223.3633454999981,,223.30627800000002,5,223.3633454999981,223.3633454999981,0.03051430000050459,225.93698629999926,[0.41833333333333333],[0.33666666666666667],[1],[0],[0],[2.6008242999996583],['target'],251423,001,2024-10-10_16h08.06.627,visual_search_exp,2024.1.5,None,2024-10-10 16h08.16.018858 +0530,
109,0,109,0,225.99924420000025,,225.9427825999992,5,225.99924420000025,225.99924420000025,0.030148100002406863,227.53764419999789,[0.33166666666666667],[-0.10333333333333333],[1],[0],[0],[1.5652863000032085],['target'],251423,001,2024-10-10_16h08.06.627,visual_search_exp,2024.1.5,None,2024-10-10 16h08.16.018858 +0530,
110,0,110,0,227.63500199999908,,227.5436551999992,10,227.63500199999908,227.63500199999908,0.05793289999928675,231.20757469999808,[-0.23666666666666666],[0.33166666666666667],[1],[0],[0],[3.606632899998658],['target'],251423,001,2024-10-10_16h08.06.627,visual_search_exp,2024.1.5,None,2024-10-10 16h08.16.018858 +0530,
111,0,111,0,231.30517820000023,,231.213366699998,10,231.30517820000023,231.30517820000023,0.058322999997471925,232.94330759999866,[0.31666666666666665],[0.22666666666666666],[1],[0],[0],[1.6721877999989374],['target'],251423,001,2024-10-10_16h08.06.627,visual_search_exp,2024.1.5,None,2024-10-10 16h08.16.018858 +0530,
112,0,112,0,232.9903278999991,,232.94998019999912,5,232.9903278999991,232.9903278999991,0.028152599999884842,234.77884579999954,[0.015],[0.085],[1],[0],[0],[1.8013252999990073],['target'],251423,001,2024-10-10_16h08.06.627,visual_search_exp,2024.1.5,None,2024-10-10 16h08.16.018858 +0530,
113,0,113,0,234.85956269999951,,234.7845355999998,10,234.85956269999951,234.85956269999951,0.05459619999965071,236.69748729999992,[-0.38666666666666666],[0.10666666666666667],[1],[0],[0],[1.8588411000018823],['target'],251423,001,2024-10-10_16h08.06.627,visual_search_exp,2024.1.5,None,2024-10-10 16h08.16.018858 +0530,
114,0,114,0,236.79457790000015,,236.70320720000018,10,236.79457790000015,236.79457790000015,0.05380370000057155,239.79994449999867,[-0.49333333333333335],[-0.4766666666666667],[1],[0],[0],[3.0436081000007107],['target'],251423,001,2024-10-10_16h08.06.627,visual_search_exp,2024.1.5,None,2024-10-10 16h08.16.018858 +0530,
115,0,115,0,239.86497729999974,,239.80587679999735,5,239.86497729999974,239.86497729999974,0.030336599997099256,240.95334789999833,[-0.03833333333333333],[-0.06666666666666667],[1],[0],[0],[1.1177328999983729],['target'],251423,001,2024-10-10_16h08.06.627,visual_search_exp,2024.1.5,None,2024-10-10 16h08.16.018858 +0530,
116,0,116,0,241.03303550000055,,240.95895889999883,10,241.03303550000055,241.03303550000055,0.05365159999928437,242.93731370000023,[0.25833333333333336],[0.028333333333333332],[1],[0],[0],[1.9253395999985514],['target'],251423,001,2024-10-10_16h08.06.627,visual_search_exp,2024.1.5,None,2024-10-10 16h08.16.018858 +0530,
117,0,117,0,243.00173859999995,,242.943217,5,243.00173859999995,243.00173859999995,0.03069329999925685,244.6052744999979,[-0.37333333333333335],[-0.20833333333333334],[1],[0],[0],[1.6319124000001466],['target'],251423,001,2024-10-10_16h08.06.627,visual_search_exp,2024.1.5,None,2024-10-10 16h08.16.018858 +0530,
118,0,118,0,244.6865278999976,,244.6110587999974,5,244.6865278999976,244.6865278999976,0.047560800001519965,245.9081210000004,[-0.015],[-0.3333333333333333],[1],[0],[0],[1.250206500000786],['target'],251423,001,2024-10-10_16h08.06.627,visual_search_exp,2024.1.5,None,2024-10-10 16h08.16.018858 +0530,
119,0,119,0,246.00512099999833,,245.91392059999998,10,246.00512099999833,246.00512099999833,0.05692540000018198,248.2099711999981,[0.39],[0.30333333333333334],[1],[0],[0],[2.23978889999853],['target'],251423,001,2024-10-10_16h08.06.627,visual_search_exp,2024.1.5,None,2024-10-10 16h08.16.018858 +0530,
120,0,120,0,248.27390119999836,,248.2158657,5,248.27390119999836,248.27390119999836,0.03253769999719225,249.88010909999866,[-0.4583333333333333],[-0.375],[1],[0],[0],[1.6322332999989158],['target'],251423,001,2024-10-10_16h08.06.627,visual_search_exp,2024.1.5,None,2024-10-10 16h08.16.018858 +0530,
121,0,121,0,249.976455,,249.88624649999838,10,249.976455,249.976455,0.054855599999427795,251.5135776999996,[-0.15333333333333332],[0.135],[1],[0],[0],[1.573158200000762],['target'],251423,001,2024-10-10_16h08.06.627,visual_search_exp,2024.1.5,None,2024-10-10 16h08.16.018858 +0530,
122,0,122,0,251.5779408999988,,251.51932060000036,5,251.5779408999988,251.5779408999988,0.03193429999737418,252.78181399999812,[-0.27166666666666667],[-0.051666666666666666],[1],[0],[0],[1.2309556000000157],['target'],251423,001,2024-10-10_16h08.06.627,visual_search_exp,2024.1.5,None,2024-10-10 16h08.16.018858 +0530,
123,0,123,0,252.87922719999915,,252.78746979999778,10,252.87922719999915,252.87922719999915,0.066866499997559,254.61736100000053,[-0.4483333333333333],[-0.23333333333333334],[1],[0],[0],[1.7636266000008618],['target'],251423,001,2024-10-10_16h08.06.627,visual_search_exp,2024.1.5,None,2024-10-10 16h08.16.018858 +0530,
124,0,124,0,254.71461920000002,,254.62324349999835,10,254.71461920000002,254.71461920000002,0.05729320000318694,256.5188784999991,[-0.34],[0.39],[1],[0],[0],[1.8390456999986782],['target'],251423,001,2024-10-10_16h08.06.627,visual_search_exp,2024.1.5,None,2024-10-10 16h08.16.018858 +0530,
125,0,125,0,256.6162371999999,,256.52472769999804,10,256.6162371999999,256.6162371999999,0.05737829999998212,258.2544342000001,[0.18166666666666667],[0.215],[1],[0],[0],[1.6728836000002048],['target'],251423,001,2024-10-10_16h08.06.627,visual_search_exp,2024.1.5,None,2024-10-10 16h08.16.018858 +0530,
126,0,126,0,258.3186999999998,,258.26092679999783,5,258.3186999999998,258.3186999999998,0.027430599999206606,259.38938909999706,[0.25833333333333336],[0.4066666666666667],[1],[0],[0],[1.1016388999996707],['target'],251423,001,2024-10-10_16h08.06.627,visual_search_exp,2024.1.5,None,2024-10-10 16h08.16.018858 +0530,
127,0,127,0,259.46955719999823,,259.39530340000056,10,259.46955719999823,259.46955719999823,0.05410440000196104,260.92388429999846,[0.2633333333333333],[0.16],[1],[0],[0],[1.4750424999983807],['target'],251423,001,2024-10-10_16h08.06.627,visual_search_exp,2024.1.5,None,2024-10-10 16h08.16.018858 +0530,
128,0,128,0,260.9882843999985,,260.92997990000003,5,260.9882843999985,260.9882843999985,0.029119000002538087,262.27507179999884,[-0.28833333333333333],[0.42333333333333334],[1],[0],[0],[1.3165728999993007],['target'],251423,001,2024-10-10_16h08.06.627,visual_search_exp,2024.1.5,None,2024-10-10 16h08.16.018858 +0530,
129,0,129,0,262.37267079999947,,262.2875236,10,262.37267079999947,262.37267079999947,0.06352490000062971,264.79448819999743,[0.13833333333333334],[0.335],[1],[0],[0],[2.4448425999980827],['target'],251423,001,2024-10-10_16h08.06.627,visual_search_exp,2024.1.5,None,2024-10-10 16h08.16.018858 +0530,
130,0,130,0,264.84181940000053,,264.80044129999806,5,264.84181940000053,264.84181940000053,0.02881110000089393,266.1636780999979,[-0.33666666666666667],[0.19166666666666668],[1],[0],[0],[1.3349928999996337],['target'],251423,001,2024-10-10_16h08.06.627,visual_search_exp,2024.1.5,None,2024-10-10 16h08.16.018858 +0530,
131,0,131,0,266.2284318999991,,266.1696699999993,5,266.2284318999991,266.2284318999991,0.030304500000056578,267.698172299999,[0.035],[0.21833333333333332],[1],[0],[0],[1.4988713999991887],['target'],251423,001,2024-10-10_16h08.06.627,visual_search_exp,2024.1.5,None,2024-10-10 16h08.16.018858 +0530,
132,0,132,0,267.76234719999775,,267.70405759999994,5,267.76234719999775,267.76234719999775,0.029468299999280134,269.3698349999977,[-0.4683333333333333],[0.33],[1],[0],[0],[1.6370519000010972],['target'],251423,001,2024-10-10_16h08.06.627,visual_search_exp,2024.1.5,None,2024-10-10 16h08.16.018858 +0530,
133,0,133,0,269.46457109999756,,269.3755980999995,10,269.46457109999756,269.46457109999756,0.055889299997943453,271.7854880999985,[-0.23333333333333334],[-0.47],[1],[0],[0],[2.3545591000001878],['target'],251423,001,2024-10-10_16h08.06.627,visual_search_exp,2024.1.5,None,2024-10-10 16h08.16.018858 +0530,
134,0,134,0,271.9004924000001,,271.7949392999981,10,271.9004924000001,271.9004924000001,0.06924319999961881,273.5721878999975,[0.12166666666666667],[0.17333333333333334],[1],[0],[0],[1.7092928000020038],['target'],251423,001,2024-10-10_16h08.06.627,visual_search_exp,2024.1.5,None,2024-10-10 16h08.16.018858 +0530,
135,0,135,0,273.63607989999946,,273.5782560999978,5,273.63607989999946,273.63607989999946,0.0288113999995403,275.12310609999986,[0.06666666666666667],[-0.16666666666666666],[1],[0],[0],[1.516775799998868],['target'],251423,001,2024-10-10_16h08.06.627,visual_search_exp,2024.1.5,None,2024-10-10 16h08.16.018858 +0530,
136,0,136,0,275.18699729999935,,275.1290216999987,5,275.18699729999935,275.18699729999935,0.030135699998936616,276.3424378999989,[-0.17833333333333334],[-0.43833333333333335],[1],[0],[0],[1.1839355999982217],['target'],251423,001,2024-10-10_16h08.06.627,visual_search_exp,2024.1.5,None,2024-10-10 16h08.16.018858 +0530,
137,0,137,0,276.4378992999991,,276.34828600000037,10,276.4378992999991,276.4378992999991,0.05751110000346671,278.5102900999991,[-0.12833333333333333],[-0.195],[1],[0],[0],[2.1050883999996586],['target'],251423,001,2024-10-10_16h08.06.627,visual_search_exp,2024.1.5,None,2024-10-10 16h08.16.018858 +0530,
138,0,138,0,278.60802449999755,,278.516007299997,10,278.60802449999755,278.60802449999755,0.0561295000006794,280.34438189999855,[0.21166666666666667],[-0.08833333333333333],[1],[0],[0],[1.772933500000363],['target'],251423,001,2024-10-10_16h08.06.627,visual_search_exp,2024.1.5,None,2024-10-10 16h08.16.018858 +0530,
139,0,139,0,280.4422236999999,,280.35040859999935,10,280.4422236999999,280.4422236999999,0.05991569999969215,283.2653864999993,[0.4033333333333333],[-0.17833333333333334],[1],[0],[0],[2.8556960000023537],['target'],251423,001,2024-10-10_16h08.06.627,visual_search_exp,2024.1.5,None,2024-10-10 16h08.16.018858 +0530,
140,0,140,0,283.3288630999996,,283.27173029999904,5,283.3288630999996,283.3288630999996,0.02942520000215154,285.3345827999983,[-0.4716666666666667],[0.08333333333333333],[1],[0],[0],[2.034626999997272],['target'],251423,001,2024-10-10_16h08.06.627,visual_search_exp,2024.1.5,None,2024-10-10 16h08.16.018858 +0530,
141,0,141,0,285.39760359999855,,285.3404104000001,5,285.39760359999855,285.39760359999855,0.029248499999084743,286.86920610000016,[0.04],[0.051666666666666666],[1],[0],[0],[1.5001594000023033],['target'],251423,001,2024-10-10_16h08.06.627,visual_search_exp,2024.1.5,None,2024-10-10 16h08.16.018858 +0530,
142,0,142,0,286.96639869999854,,286.8750312999982,10,286.96639869999854,286.96639869999854,0.05623310000009951,288.03714039999977,[-0.16166666666666665],[0.10666666666666667],[1],[0],[0],[1.1064427999990585],['target'],251423,001,2024-10-10_16h08.06.627,visual_search_exp,2024.1.5,None,2024-10-10 16h08.16.018858 +0530,
143,0,143,0,288.1350104999983,,288.04298519999793,10,288.1350104999983,288.1350104999983,0.05615619999662158,289.97208019999744,[0.17166666666666666],[0.275],[1],[0],[0],[1.873439099999814],['target'],251423,001,2024-10-10_16h08.06.627,visual_search_exp,2024.1.5,None,2024-10-10 16h08.16.018858 +0530,
144,0,144,0,290.05258870000034,,289.9780780000001,10,290.05258870000034,290.05258870000034,0.052712299999257084,291.5572968999986,[0.10333333333333333],[-0.45166666666666666],[1],[0],[0],[1.527148600001965],['target'],251423,001,2024-10-10_16h08.06.627,visual_search_exp,2024.1.5,None,2024-10-10 16h08.16.018858 +0530,
145,0,145,0,291.6210589000002,,291.56320049999704,5,291.6210589000002,291.6210589000002,0.03049210000244784,293.6438715000004,[-0.23833333333333334],[0.11833333333333333],[1],[0],[0],[2.0506814000000304],['target'],251423,001,2024-10-10_16h08.06.627,visual_search_exp,2024.1.5,None,2024-10-10 16h08.16.018858 +0530,
146,0,146,0,293.7066629999972,,293.6503687000004,5,293.7066629999972,293.7066629999972,0.02827370000159135,295.3288683999999,[0.105],[0.42],[1],[0],[0],[1.6508943999979238],['target'],251423,001,2024-10-10_16h08.06.627,visual_search_exp,2024.1.5,None,2024-10-10 16h08.16.018858 +0530,
147,0,147,0,295.3924517999985,,295.33461479999823,5,295.3924517999985,295.3924517999985,0.027754799997637747,297.9146336999984,[-0.06],[-0.45],[1],[0],[0],[2.552823800000624],['target'],251423,001,2024-10-10_16h08.06.627,visual_search_exp,2024.1.5,None,2024-10-10 16h08.16.018858 +0530,
148,0,148,0,298.0115031999994,,297.9207674999998,10,298.0115031999994,298.0115031999994,0.05533759999889298,299.18115559999933,[-0.025],[-0.2],[1],[0],[0],[1.2058333000022685],['target'],251423,001,2024-10-10_16h08.06.627,visual_search_exp,2024.1.5,None,2024-10-10 16h08.16.018858 +0530,
149,0,149,0,299.28020130000004,,299.1869353999973,10,299.28020130000004,299.28020130000004,0.05730119999861927,301.4842374999971,[0.19],[0.22166666666666668],[1],[0],[0],[2.240661600000749],['target'],251423,001,2024-10-10_16h08.06.627,visual_search_exp,2024.1.5,None,2024-10-10 16h08.16.018858 +0530,
150,0,150,0,301.566096999999,,301.49013790000026,10,301.566096999999,301.566096999999,0.05639080000037211,304.00437169999714,[-0.2816666666666667],[-0.345],[1],[0],[0],[2.458447299999534],['target'],251423,001,2024-10-10_16h08.06.627,visual_search_exp,2024.1.5,None,2024-10-10 16h08.16.018858 +0530,
151,0,151,0,304.05117699999755,,304.0101016999979,5,304.05117699999755,304.05117699999755,0.0294328999989375,305.5736126999982,[-0.435],[0.22666666666666666],[1],[0],[0],[1.5345842000024277],['target'],251423,001,2024-10-10_16h08.06.627,visual_search_exp,2024.1.5,None,2024-10-10 16h08.16.018858 +0530,
152,0,152,0,305.6369037000004,,305.5795117999987,5,305.6369037000004,305.6369037000004,0.02906079999957001,308.04317049999736,[-0.03333333333333333],[0.315],[1],[0],[0],[2.435134100000141],['target'],251423,001,2024-10-10_16h08.06.627,visual_search_exp,2024.1.5,None,2024-10-10 16h08.16.018858 +0530,
153,0,153,0,308.1226112999975,,308.0489670999996,10,308.1226112999975,308.1226112999975,0.05360809999910998,309.52649889999884,[-0.4666666666666667],[0.11166666666666666],[1],[0],[0],[1.4245410000003176],['target'],251423,001,2024-10-10_16h08.06.627,visual_search_exp,2024.1.5,None,2024-10-10 16h08.16.018858 +0530,
154,0,154,0,309.62422779999906,,309.53233719999844,10,309.62422779999906,309.62422779999906,0.05769789999976638,310.84517179999966,[-0.44],[0.31],[1],[0],[0],[1.255587600000581],['target'],251423,001,2024-10-10_16h08.06.627,visual_search_exp,2024.1.5,None,2024-10-10 16h08.16.018858 +0530,
155,0,155,0,310.9098501999979,,310.8568403999998,5,310.9098501999979,310.9098501999979,0.03622659999746247,312.88240179999775,[0.01],[-0.2733333333333333],[1],[0],[0],[1.9913560999993933],['target'],251423,001,2024-10-10_16h08.06.627,visual_search_exp,2024.1.5,None,2024-10-10 16h08.16.018858 +0530,
156,0,156,0,312.9443718000002,,312.8881670999981,5,312.9443718000002,312.9443718000002,0.028383400000166148,315.1174898999998,[0.21666666666666667],[0.48],[1],[0],[0],[2.2014933000027668],['target'],251423,001,2024-10-10_16h08.06.627,visual_search_exp,2024.1.5,None,2024-10-10 16h08.16.018858 +0530,
157,0,157,0,315.18092989999786,,315.12345709999863,5,315.18092989999786,315.18092989999786,0.027876500000274973,318.0207597999979,[-0.22833333333333333],[-0.4583333333333333],[1],[0],[0],[2.869932900001004],['target'],251423,001,2024-10-10_16h08.06.627,visual_search_exp,2024.1.5,None,2024-10-10 16h08.16.018858 +0530,
158,0,158,0,318.0836980999993,,318.0267251999976,5,318.0836980999993,318.0836980999993,0.03003790000002482,319.87206439999864,[0.48],[-0.4033333333333333],[1],[0],[0],[1.8159341999999015],['target'],251423,001,2024-10-10_16h08.06.627,visual_search_exp,2024.1.5,None,2024-10-10 16h08.16.018858 +0530,
159,0,159,0,319.93608680000034,,319.8779665999973,5,319.93608680000034,319.93608680000034,0.031284900000173366,321.2569430000003,[-0.125],[-0.095],[1],[0],[0],[1.3483162000011362],['target'],251423,001,2024-10-10_16h08.06.627,visual_search_exp,2024.1.5,None,2024-10-10 16h08.16.018858 +0530,
160,0,160,0,321.35570799999914,,321.26317429999835,10,321.35570799999914,321.35570799999914,0.06264070000179345,323.05917099999715,[0.39666666666666667],[-0.145],[1],[0],[0],[1.7339030000002822],['target'],251423,001,2024-10-10_16h08.06.627,visual_search_exp,2024.1.5,None,2024-10-10 16h08.16.018858 +0530,
161,0,161,0,323.12326140000005,,323.0657539999993,5,323.12326140000005,323.12326140000005,0.038369499998225365,324.6958936999981,[-0.31333333333333335],[0.07833333333333334],[1],[0],[0],[1.5922632000001613],['target'],251423,001,2024-10-10_16h08.06.627,visual_search_exp,2024.1.5,None,2024-10-10 16h08.16.018858 +0530,
162,0,162,0,324.7753111999991,,324.70469589999993,5,324.7753111999991,324.7753111999991,0.04313689999980852,326.88165819999995,[-0.13666666666666666],[-0.145],[1],[0],[0],[2.1358276000028127],['target'],251423,001,2024-10-10_16h08.06.627,visual_search_exp,2024.1.5,None,2024-10-10 16h08.16.018858 +0530,
163,0,163,0,326.97672149999926,,326.88743149999937,10,326.97672149999926,326.97672149999926,0.05749649999779649,328.5138341999991,[0.19833333333333333],[-0.25833333333333336],[1],[0],[0],[1.56958460000169],['target'],251423,001,2024-10-10_16h08.06.627,visual_search_exp,2024.1.5,None,2024-10-10 16h08.16.018858 +0530,
164,0,164,0,328.6116519999996,,328.51983839999957,10,328.6116519999996,328.6116519999996,0.057382899998629,329.71501329999955,[0.15666666666666668],[-0.2916666666666667],[1],[0],[0],[1.1384577999997418],['target'],251423,001,2024-10-10_16h08.06.627,visual_search_exp,2024.1.5,None,2024-10-10 16h08.16.018858 +0530,
165,0,165,0,329.8128794000004,,329.7209554999972,10,329.8128794000004,329.8128794000004,0.058763400000316324,331.7029255999987,[-0.25],[0.08666666666666667],[1],[0],[0],[1.9238129000004847],['target'],251423,001,2024-10-10_16h08.06.627,visual_search_exp,2024.1.5,None,2024-10-10 16h08.16.018858 +0530,
166,0,166,0,331.7992379999996,,331.7089925,10,331.7992379999996,331.7992379999996,0.055019999999785796,333.47128469999734,[0.31833333333333336],[-0.30666666666666664],[1],[0],[0],[1.7079283999992185],['target'],251423,001,2024-10-10_16h08.06.627,visual_search_exp,2024.1.5,None,2024-10-10 16h08.16.018858 +0530,
167,0,167,0,333.53444780000063,,333.4770611999993,5,333.53444780000063,333.53444780000063,0.02872179999758373,335.307145499999,[0.14333333333333334],[-0.175],[1],[0],[0],[1.8019849999982398],['target'],251423,001,2024-10-10_16h08.06.627,visual_search_exp,2024.1.5,None,2024-10-10 16h08.16.018858 +0530,
168,0,168,0,335.403474499999,,335.31275789999927,10,335.403474499999,335.403474499999,0.05769050000162679,336.4728944999988,[0.185],[-0.32166666666666666],[1],[0],[0],[1.1030729000012798],['target'],251423,001,2024-10-10_16h08.06.627,visual_search_exp,2024.1.5,None,2024-10-10 16h08.16.018858 +0530,
169,0,169,0,336.52008849999766,,336.4786086999993,5,336.52008849999766,336.52008849999766,0.029250499999761814,338.4440852999978,[0.155],[0.165],[1],[0],[0],[1.9367660000025353],['target'],251423,001,2024-10-10_16h08.06.627,visual_search_exp,2024.1.5,None,2024-10-10 16h08.16.018858 +0530,
170,0,170,0,338.5058874999995,,338.4496790999983,5,338.5058874999995,338.5058874999995,0.028107900001486996,340.44456960000025,[0.11333333333333333],[-0.36833333333333335],[1],[0],[0],[1.9672845999994024],['target'],251423,001,2024-10-10_16h08.06.627,visual_search_exp,2024.1.5,None,2024-10-10 16h08.16.018858 +0530,
171,0,171,0,340.49131289999787,,340.45042479999756,5,340.49131289999787,340.49131289999787,0.028579300000274088,342.8803575999991,[0.465],[-0.47833333333333333],[1],[0],[0],[2.401989500001946],['target'],251423,001,2024-10-10_16h08.06.627,visual_search_exp,2024.1.5,None,2024-10-10 16h08.16.018858 +0530,
172,0,172,0,342.94442229999913,,342.8861285999992,5,342.94442229999913,342.94442229999913,0.030276800000137882,344.56847389999893,[-0.4866666666666667],[0.40166666666666667],[1],[0],[0],[1.652532699998119],['target'],251423,001,2024-10-10_16h08.06.627,visual_search_exp,2024.1.5,None,2024-10-10 16h08.16.018858 +0530,
173,0,173,0,344.6632142999988,,344.57484269999986,10,344.6632142999988,344.6632142999988,0.05906970000069123,346.40012459999707,[0.4816666666666667],[-0.10333333333333333],[1],[0],[0],[1.7668261999970127],['target'],251423,001,2024-10-10_16h08.06.627,visual_search_exp,2024.1.5,None,2024-10-10 16h08.16.018858 +0530,
174,0,174,0,346.5145612999986,,346.40680879999854,10,346.5145612999986,346.5145612999986,0.07391070000085165,348.7865395999979,[-0.17666666666666667],[0.0016666666666666668],[1],[0],[0],[2.306616900001245],['target'],251423,001,2024-10-10_16h08.06.627,visual_search_exp,2024.1.5,None,2024-10-10 16h08.16.018858 +0530,
175,0,175,0,348.8337427000006,,348.7923030999991,5,348.8337427000006,348.8337427000006,0.027977099998679478,350.1409934000003,[0.4266666666666667],[-0.08666666666666667],[1],[0],[0],[1.3211727000016253],['target'],251423,001,2024-10-10_16h08.06.627,visual_search_exp,2024.1.5,None,2024-10-10 16h08.16.018858 +0530,
176,0,176,0,350.23578839999755,,350.14682410000023,10,350.23578839999755,350.23578839999755,0.053769000001921086,353.5431576999981,[0.29333333333333333],[0.48333333333333334],[1],[0],[0],[3.343068799997127],['target'],251423,001,2024-10-10_16h08.06.627,visual_search_exp,2024.1.5,None,2024-10-10 16h08.16.018858 +0530,
177,0,177,0,353.6069314999986,,353.5491650999975,5,353.6069314999986,353.6069314999986,0.029756799998722272,355.3276941999975,[-0.3383333333333333],[-0.09833333333333333],[1],[0],[0],[1.7493613999977242],['target'],251423,001,2024-10-10_16h08.06.627,visual_search_exp,2024.1.5,None,2024-10-10 16h08.16.018858 +0530,
178,0,178,0,355.39100999999937,,355.3333113999979,5,355.39100999999937,355.39100999999937,0.029744400002527982,357.1625002999972,[-0.185],[0.4683333333333333],[1],[0],[0],[1.8000111000001198],['target'],251423,001,2024-10-10_16h08.06.627,visual_search_exp,2024.1.5,None,2024-10-10 16h08.16.018858 +0530,
179,0,179,0,357.26029239999843,,357.16885270000057,10,357.26029239999843,357.26029239999843,0.05509639999945648,360.0145373999985,[0.3333333333333333],[0.3233333333333333],[1],[0],[0],[2.7911862000000838],['target'],251423,001,2024-10-10_16h08.06.627,visual_search_exp,2024.1.5,None,2024-10-10 16h08.16.018858 +0530,
180,0,180,0,360.1131041999979,,360.02043969999795,10,360.1131041999979,360.1131041999979,0.0553552999990643,361.7510201999976,[0.15333333333333332],[0.14166666666666666],[1],[0],[0],[1.6758891000026779],['target'],251423,001,2024-10-10_16h08.06.627,visual_search_exp,2024.1.5,None,2024-10-10 16h08.16.018858 +0530,
181,0,181,0,361.8159175999972,,361.75667350000003,5,361.8159175999972,361.8159175999972,0.030362699999386678,363.3205635999984,[-0.04833333333333333],[-0.16],[1],[0],[0],[1.534163799999078],['target'],251423,001,2024-10-10_16h08.06.627,visual_search_exp,2024.1.5,None,2024-10-10 16h08.16.018858 +0530,
182,0,182,0,363.41658839999945,,363.32614900000044,10,363.41658839999945,363.41658839999945,0.05669769999803975,365.15618109999923,[-0.36333333333333334],[0.13833333333333334],[1],[0],[0],[1.7739083999986178],['target'],251423,001,2024-10-10_16h08.06.627,visual_search_exp,2024.1.5,None,2024-10-10 16h08.16.018858 +0530,
183,0,183,0,365.2524897999974,,365.1618355999999,10,365.2524897999974,365.2524897999974,0.056222499999421416,367.2898021000001,[0.25833333333333336],[0.19333333333333333],[1],[0],[0],[2.0723241999985476],['target'],251423,001,2024-10-10_16h08.06.627,visual_search_exp,2024.1.5,None,2024-10-10 16h08.16.018858 +0530,
184,0,184,0,367.3874732999975,,367.2953911000004,10,367.3874732999975,367.3874732999975,0.05580579999877955,370.07679019999705,[0.49333333333333335],[-0.056666666666666664],[1],[0],[0],[2.7260860999995202],['target'],251423,001,2024-10-10_16h08.06.627,visual_search_exp,2024.1.5,None,2024-10-10 16h08.16.018858 +0530,
185,0,185,0,370.15700989999823,,370.08277950000047,10,370.15700989999823,370.15700989999823,0.05321989999720245,372.4290454999973,[-0.04],[-0.11666666666666667],[1],[0],[0],[2.293685299999197],['target'],251423,001,2024-10-10_16h08.06.627,visual_search_exp,2024.1.5,None,2024-10-10 16h08.16.018858 +0530,
186,0,186,0,372.50944789999994,,372.4351336,10,372.50944789999994,372.50944789999994,0.0524303999991389,374.13193839999803,[-0.47],[0.245],[1],[0],[0],[1.6450158999978157],['target'],251423,001,2024-10-10_16h08.06.627,visual_search_exp,2024.1.5,None,2024-10-10 16h08.16.018858 +0530,
187,0,187,0,374.19566660000055,,374.13851969999814,5,374.19566660000055,374.19566660000055,0.028122600000642706,375.53271459999814,[0.28],[0.225],[1],[0],[0],[1.3667171000015514],['target'],251423,001,2024-10-10_16h08.06.627,visual_search_exp,2024.1.5,None,2024-10-10 16h08.16.018858 +0530,
188,0,188,0,375.630248999998,,375.53850039999816,10,375.630248999998,375.630248999998,0.054615900000499096,377.6347167999993,[-0.5066666666666667],[0.4116666666666667],[1],[0],[0],[2.0422472999998718],['target'],251423,001,2024-10-10_16h08.06.627,visual_search_exp,2024.1.5,None,2024-10-10 16h08.16.018858 +0530,
189,0,189,0,377.71570249999786,,377.64454329999717,5,377.71570249999786,377.71570249999786,0.044858500001282664,379.97241639999993,[0.43166666666666664],[0.32166666666666666],[1],[0],[0],[2.284505799998442],['target'],251423,001,2024-10-10_16h08.06.627,visual_search_exp,2024.1.5,None,2024-10-10 16h08.16.018858 +0530,
190,0,190,0,380.03449349999937,,379.97826239999995,5,380.03449349999937,380.03449349999937,0.028880999998364132,382.59128899999996,[-0.17166666666666666],[-0.35833333333333334],[1],[0],[0],[2.5847767000013846],['target'],251423,001,2024-10-10_16h08.06.627,visual_search_exp,2024.1.5,None,2024-10-10 16h08.16.018858 +0530,
191,0,191,0,382.6539645999983,,382.5970605000002,5,382.6539645999983,382.6539645999983,0.030252799999288982,384.2258527999984,[-0.47333333333333333],[0.008333333333333333],[1],[0],[0],[1.5992092000014964],['target'],251423,001,2024-10-10_16h08.06.627,visual_search_exp,2024.1.5,None,2024-10-10 16h08.16.018858 +0530,
192,0,192,0,384.2891060000002,,384.2316830999989,5,384.2891060000002,384.2891060000002,0.03038379999998142,385.64331239999956,[-0.21666666666666667],[-0.008333333333333333],[1],[0],[0],[1.3818176999993739],['target'],251423,001,2024-10-10_16h08.06.627,visual_search_exp,2024.1.5,None,2024-10-10 16h08.16.018858 +0530,
193,0,193,0,385.7249529999972,,385.64899589999914,10,385.7249529999972,385.7249529999972,0.0544307000018307,387.36177379999936,[-0.11333333333333333],[-0.4],[1],[0],[0],[1.6589481000009982],['target'],251423,001,2024-10-10_16h08.06.627,visual_search_exp,2024.1.5,None,2024-10-10 16h08.16.018858 +0530,
194,0,194,0,387.44342289999986,,387.36770129999786,10,387.44342289999986,387.44342289999986,0.057045400000788504,389.5147545999971,[-0.39666666666666667],[-0.13833333333333334],[1],[0],[0],[2.0906791999987036],['target'],251423,001,2024-10-10_16h08.06.627,visual_search_exp,2024.1.5,None,2024-10-10 16h08.16.018858 +0530,
195,0,195,0,389.5623151,,389.5205026000003,5,389.5623151,389.5623151,0.02875750000021071,391.00009189999764,[0.18166666666666667],[-0.4216666666666667],[1],[0],[0],[1.4514648000003945],['target'],251423,001,2024-10-10_16h08.06.627,visual_search_exp,2024.1.5,None,2024-10-10 16h08.16.018858 +0530,
196,0,196,0,391.0637007000005,,391.0060467999974,5,391.0637007000005,391.0637007000005,0.028581800001120428,392.7849056999985,[-0.05333333333333334],[0.35833333333333334],[1],[0],[0],[1.7510760000004666],['target'],251423,001,2024-10-10_16h08.06.627,visual_search_exp,2024.1.5,None,2024-10-10 16h08.16.018858 +0530,
197,0,197,0,392.8818657999982,,392.7906566999991,10,392.8818657999982,392.8818657999982,0.0545929999971122,395.0194924999996,[-0.10166666666666667],[-0.12166666666666667],[1],[0],[0],[2.174901399997907],['target'],251423,001,2024-10-10_16h08.06.627,visual_search_exp,2024.1.5,None,2024-10-10 16h08.16.018858 +0530,
198,0,198,0,395.10172930000044,,395.0253365999997,10,395.10172930000044,395.10172930000044,0.055798900000809226,397.84069629999794,[0.235],[0.016666666666666666],[1],[0],[0],[2.7602327999993577],['target'],251423,001,2024-10-10_16h08.06.627,visual_search_exp,2024.1.5,None,2024-10-10 16h08.16.018858 +0530,
199,0,199,0,397.9211770999973,,397.84665999999925,10,397.9211770999973,397.9211770999973,0.05542100000093342,399.8922558999984,[-0.37666666666666665],[0.115],[1],[0],[0],[1.9908360999979777],['target'],251423,001,2024-10-10_16h08.06.627,visual_search_exp,2024.1.5,None,2024-10-10 16h08.16.018858 +0530,
