trials.thisRepN,trials.thisTrialN,trials.thisN,trials.thisIndex,thisRow.t,notes,trial.started,num_distr,fixation.started,target.started,mouse.started,trial.stopped,mouse.x,mouse.y,mouse.leftButton,mouse.midButton,mouse.rightButton,mouse.time,mouse.clicked_name,participant,session,date,expName,psychopyVersion,frameRate,expStart,
0,0,0,0,0.18127300000014657,,0.07452449999982491,10,0.18127300000014657,0.18127300000014657,0.14076200000090466,3.059814300000653,[0.13],[0.17],[1],[0],[0],[2.917847900000197],['target'],441834,001,2024-10-10_15h21.23.977,visual_search_exp,2024.1.5,None,2024-10-10 15h21.36.360313 +0530,
1,0,1,0,3.3178446000001713,,3.0688391999992746,10,3.3178446000001713,3.3178446000001713,0.2134265000004234,4.72101400000065,[-0.065],[-0.10666666666666667],[1],[0],[0],[1.439382200000182],['target'],441834,001,2024-10-10_15h21.23.977,visual_search_exp,2024.1.5,None,2024-10-10 15h21.36.360313 +0530,
2,0,2,0,4.819036799999594,,4.7268330000006245,10,4.819036799999594,4.819036799999594,0.05721850000008999,6.423422899999423,[0.4666666666666667],[-0.14333333333333334],[1],[0],[0],[1.639947799998481],['target'],441834,001,2024-10-10_15h21.23.977,visual_search_exp,2024.1.5,None,2024-10-10 15h21.36.360313 +0530,
3,0,3,0,6.487828499999523,,6.429165499999726,5,6.487828499999523,6.487828499999523,0.029144199999791454,7.874548800000412,[0.06666666666666667],[0.018333333333333333],[1],[0],[0],[1.4168564999999944],['target'],441834,001,2024-10-10_15h21.23.977,visual_search_exp,2024.1.5,None,2024-10-10 15h21.36.360313 +0530,
4,0,4,0,7.938614799999414,,7.88019709999935,5,7.938614799999414,7.938614799999414,0.02927319999980682,9.578848499999367,[-0.36666666666666664],[0.145],[1],[0],[0],[1.6699763000015082],['target'],441834,001,2024-10-10_15h21.23.977,visual_search_exp,2024.1.5,None,2024-10-10 15h21.36.360313 +0530,
5,0,5,0,9.641264599998976,,9.584714299999177,5,9.641264599998976,9.641264599998976,0.030459300000075018,11.14452270000038,[-0.056666666666666664],[-0.31666666666666665],[1],[0],[0],[1.529999800000951],['target'],441834,001,2024-10-10_15h21.23.977,visual_search_exp,2024.1.5,None,2024-10-10 15h21.36.360313 +0530,
6,0,6,0,11.24214159999974,,11.150351300000693,10,11.24214159999974,11.24214159999974,0.05789499999991676,13.046233900000516,[-0.395],[0.29333333333333333],[1],[0],[0],[1.8387701000010566],['target'],441834,001,2024-10-10_15h21.23.977,visual_search_exp,2024.1.5,None,2024-10-10 15h21.36.360313 +0530,
7,0,7,0,13.111762700000327,,13.052084900000409,5,13.111762700000327,13.111762700000327,0.030384600000616047,14.648136499999964,[0.4683333333333333],[-0.4033333333333333],[1],[0],[0],[1.566293299998506],['target'],441834,001,2024-10-10_15h21.23.977,visual_search_exp,2024.1.5,None,2024-10-10 15h21.36.360313 +0530,
8,0,8,0,14.746379700000034,,14.654482899999493,10,14.746379700000034,14.746379700000034,0.05899890000000596,16.550184899999294,[-0.24666666666666667],[0.4083333333333333],[1],[0],[0],[1.8377346000015677],['target'],441834,001,2024-10-10_15h21.23.977,visual_search_exp,2024.1.5,None,2024-10-10 15h21.36.360313 +0530,
9,0,9,0,16.615331200000583,,16.556069399999615,5,16.615331200000583,16.615331200000583,0.03071999999883701,17.601355999999214,[-0.30833333333333335],[0.12666666666666668],[1],[0],[0],[1.0152037999996537],['target'],441834,001,2024-10-10_15h21.23.977,visual_search_exp,2024.1.5,None,2024-10-10 15h21.36.360313 +0530,
10,0,10,0,17.64946079999936,,17.6070165000001,5,17.64946079999936,17.64946079999936,0.028945400001248345,18.73607880000054,[0.07],[0.04833333333333333],[1],[0],[0],[1.1007086000008712],['target'],441834,001,2024-10-10_15h21.23.977,visual_search_exp,2024.1.5,None,2024-10-10 15h21.36.360313 +0530,
11,0,11,0,18.834078800000498,,18.74193860000014,10,18.834078800000498,18.834078800000498,0.06808520000049612,20.92181250000067,[-0.4816666666666667],[-0.335],[1],[0],[0],[2.1123905000004015],['target'],441834,001,2024-10-10_15h21.23.977,visual_search_exp,2024.1.5,None,2024-10-10 15h21.36.360313 +0530,
12,0,12,0,21.020160699999906,,20.927643299999545,10,21.020160699999906,21.020160699999906,0.054862900000443915,23.658082699999795,[0.16166666666666665],[-0.385],[1],[0],[0],[2.676196299998992],['target'],441834,001,2024-10-10_15h21.23.977,visual_search_exp,2024.1.5,None,2024-10-10 15h21.36.360313 +0530,
13,0,13,0,23.75618829999985,,23.66400419999991,10,23.75618829999985,23.75618829999985,0.06321290000050794,25.31023230000028,[0.415],[-0.17],[1],[0],[0],[1.5836603999996441],['target'],441834,001,2024-10-10_15h21.23.977,visual_search_exp,2024.1.5,None,2024-10-10 15h21.36.360313 +0530,
14,0,14,0,25.375038099999074,,25.316058200000043,5,25.375038099999074,25.375038099999074,0.0328442999998515,26.862659399999757,[-0.13166666666666665],[-0.465],[1],[0],[0],[1.514283799999248],['target'],441834,001,2024-10-10_15h21.23.977,visual_search_exp,2024.1.5,None,2024-10-10 15h21.36.360313 +0530,
15,0,15,0,26.910048699999606,,26.86838639999951,5,26.910048699999606,26.910048699999606,0.02786070000001928,27.982487199999014,[0.5016666666666667],[-0.24166666666666667],[1],[0],[0],[1.0866900000000896],['target'],441834,001,2024-10-10_15h21.23.977,visual_search_exp,2024.1.5,None,2024-10-10 15h21.36.360313 +0530,
16,0,16,0,28.07751450000069,,27.989328199999363,10,28.07751450000069,28.07751450000069,0.055001199998514494,29.999106400000528,[-0.32],[0.006666666666666667],[1],[0],[0],[1.9554306999998516],['target'],441834,001,2024-10-10_15h21.23.977,visual_search_exp,2024.1.5,None,2024-10-10 15h21.36.360313 +0530,
17,0,17,0,30.104738800000632,,30.00486060000003,10,30.104738800000632,30.104738800000632,0.055813799999668845,33.769671500000186,[0.051666666666666666],[0.4533333333333333],[1],[0],[0],[3.7094985999992787],['target'],441834,001,2024-10-10_15h21.23.977,visual_search_exp,2024.1.5,None,2024-10-10 15h21.36.360313 +0530,
18,0,18,0,33.85040499999923,,33.775469399999565,10,33.85040499999923,33.85040499999923,0.055274000000281376,35.05408669999997,[0.24333333333333335],[0.3016666666666667],[1],[0],[0],[1.2239946000008786],['target'],441834,001,2024-10-10_15h21.23.977,visual_search_exp,2024.1.5,None,2024-10-10 15h21.36.360313 +0530,
19,0,19,0,35.15309530000013,,35.05961600000046,10,35.15309530000013,35.15309530000013,0.05730269999912707,37.42358559999957,[-0.016666666666666666],[-0.36833333333333335],[1],[0],[0],[2.3072818000000552],['target'],441834,001,2024-10-10_15h21.23.977,visual_search_exp,2024.1.5,None,2024-10-10 15h21.36.360313 +0530,
20,0,20,0,37.48772420000023,,37.42943170000035,5,37.48772420000023,37.48772420000023,0.029891800000768853,38.527740300000005,[0.005],[0.405],[1],[0],[0],[1.069063400000232],['target'],441834,001,2024-10-10_15h21.23.977,visual_search_exp,2024.1.5,None,2024-10-10 15h21.36.360313 +0530,
21,0,21,0,38.58977149999919,,38.53337389999979,5,38.58977149999919,38.58977149999919,0.029470899999068934,40.04557980000027,[-0.38],[-0.3516666666666667],[1],[0],[0],[1.483314799999789],['target'],441834,001,2024-10-10_15h21.23.977,visual_search_exp,2024.1.5,None,2024-10-10 15h21.36.360313 +0530,
22,0,22,0,40.14078530000006,,40.051429900000585,10,40.14078530000006,40.14078530000006,0.05641800000012154,41.34440949999953,[-0.48833333333333334],[0.125],[1],[0],[0],[1.237156799999866],['target'],441834,001,2024-10-10_15h21.23.977,visual_search_exp,2024.1.5,None,2024-10-10 15h21.36.360313 +0530,
23,0,23,0,41.409439299999576,,41.35030779999943,5,41.409439299999576,41.409439299999576,0.02987530000063998,42.41514289999941,[0.305],[-0.06166666666666667],[1],[0],[0],[1.0355681000000914],['target'],441834,001,2024-10-10_15h21.23.977,visual_search_exp,2024.1.5,None,2024-10-10 15h21.36.360313 +0530,
24,0,24,0,42.476561100000254,,42.42099430000053,5,42.476561100000254,42.476561100000254,0.028614600001674262,44.38032779999958,[-0.31333333333333335],[-0.4766666666666667],[1],[0],[0],[1.931359500000326],['target'],441834,001,2024-10-10_15h21.23.977,visual_search_exp,2024.1.5,None,2024-10-10 15h21.36.360313 +0530,
25,0,25,0,44.44606249999924,,44.3863053999994,5,44.44606249999924,44.44606249999924,0.030391800000870717,45.56469549999929,[-0.46166666666666667],[0.34833333333333333],[1],[0],[0],[1.1486706999985472],['target'],441834,001,2024-10-10_15h21.23.977,visual_search_exp,2024.1.5,None,2024-10-10 15h21.36.360313 +0530,
26,0,26,0,45.62968220000039,,45.57046149999951,5,45.62968220000039,45.62968220000039,0.029763299999103765,48.70224600000074,[0.025],[-0.045],[1],[0],[0],[3.1025470000004134],['target'],441834,001,2024-10-10_15h21.23.977,visual_search_exp,2024.1.5,None,2024-10-10 15h21.36.360313 +0530,
27,0,27,0,48.76776439999958,,48.70797279999897,5,48.76776439999958,48.76776439999958,0.029693600001337472,50.373314200000095,[-0.3283333333333333],[0.48],[1],[0],[0],[1.6363991999987775],['target'],441834,001,2024-10-10_15h21.23.977,visual_search_exp,2024.1.5,None,2024-10-10 15h21.36.360313 +0530,
28,0,28,0,50.4685597000007,,50.37907459999951,10,50.4685597000007,50.4685597000007,0.055485099999714294,55.525802199999816,[0.37833333333333335],[-0.09833333333333333],[1],[0],[0],[5.091734399999041],['target'],441834,001,2024-10-10_15h21.23.977,visual_search_exp,2024.1.5,None,2024-10-10 15h21.36.360313 +0530,
29,0,29,0,55.62459080000008,,55.531512499999735,10,55.62459080000008,55.62459080000008,0.05785269999978482,57.46283439999934,[-0.44],[-0.065],[1],[0],[0],[1.8740598000003956],['target'],441834,001,2024-10-10_15h21.23.977,visual_search_exp,2024.1.5,None,2024-10-10 15h21.36.360313 +0530,
30,0,30,0,57.52603559999989,,57.468670700000075,5,57.52603559999989,57.52603559999989,0.029317500000615837,59.316005399999995,[0.37],[0.415],[1],[0],[0],[1.818270499999926],['target'],441834,001,2024-10-10_15h21.23.977,visual_search_exp,2024.1.5,None,2024-10-10 15h21.36.360313 +0530,
31,0,31,0,59.37922609999987,,59.32553849999931,5,59.37922609999987,59.37922609999987,0.029422499999782303,60.55115189999924,[-0.105],[-0.43166666666666664],[1],[0],[0],[1.197684599999775],['target'],441834,001,2024-10-10_15h21.23.977,visual_search_exp,2024.1.5,None,2024-10-10 15h21.36.360313 +0530,
32,0,32,0,60.646193599999606,,60.55701120000049,10,60.646193599999606,60.646193599999606,0.05930889999945066,62.86810659999901,[0.3883333333333333],[0.34],[1],[0],[0],[2.2524481999989803],['target'],441834,001,2024-10-10_15h21.23.977,visual_search_exp,2024.1.5,None,2024-10-10 15h21.36.360313 +0530,
33,0,33,0,62.93366919999971,,62.87399419999929,5,62.93366919999971,62.93366919999971,0.02964319999955478,64.35383729999921,[0.165],[-0.13833333333333334],[1],[0],[0],[1.4508456000003207],['target'],441834,001,2024-10-10_15h21.23.977,visual_search_exp,2024.1.5,None,2024-10-10 15h21.36.360313 +0530,
34,0,34,0,64.45111299999917,,64.35951559999921,10,64.45111299999917,64.45111299999917,0.05568859999948472,65.82100940000055,[-0.34],[0.19333333333333333],[1],[0],[0],[1.4064689000006183],['target'],441834,001,2024-10-10_15h21.23.977,visual_search_exp,2024.1.5,None,2024-10-10 15h21.36.360313 +0530,
35,0,35,0,65.88684570000078,,65.82674720000068,5,65.88684570000078,65.88684570000078,0.02969190000112576,68.24089900000035,[0.10166666666666667],[0.44666666666666666],[1],[0],[0],[2.385055500000817],['target'],441834,001,2024-10-10_15h21.23.977,visual_search_exp,2024.1.5,None,2024-10-10 15h21.36.360313 +0530,
36,0,36,0,68.30492709999999,,68.24690089999967,5,68.30492709999999,68.30492709999999,0.028640200000154437,70.49584180000056,[-0.14666666666666667],[0.48833333333333334],[1],[0],[0],[2.2209676999991643],['target'],441834,001,2024-10-10_15h21.23.977,visual_search_exp,2024.1.5,None,2024-10-10 15h21.36.360313 +0530,
37,0,37,0,70.55767679999917,,70.50162760000057,5,70.55767679999917,70.55767679999917,0.030551900001228205,71.66116099999999,[-0.3233333333333333],[0.4],[1],[0],[0],[1.1295845000004192],['target'],441834,001,2024-10-10_15h21.23.977,visual_search_exp,2024.1.5,None,2024-10-10 15h21.36.360313 +0530,
38,0,38,0,71.7587265000002,,71.6668625000002,10,71.7587265000002,71.7587265000002,0.05906460000005609,74.6312469000004,[0.3616666666666667],[-0.26666666666666666],[1],[0],[0],[2.9059068000005936],['target'],441834,001,2024-10-10_15h21.23.977,visual_search_exp,2024.1.5,None,2024-10-10 15h21.36.360313 +0530,
39,0,39,0,74.69542639999963,,74.63717499999984,5,74.69542639999963,74.69542639999963,0.029458099999828846,76.13408200000049,[-0.18],[0.355],[1],[0],[0],[1.4680342999999993],['target'],441834,001,2024-10-10_15h21.23.977,visual_search_exp,2024.1.5,None,2024-10-10 15h21.36.360313 +0530,
40,0,40,0,76.19660830000066,,76.13980900000024,5,76.19660830000066,76.19660830000066,0.02932680000049004,77.10273659999984,[0.27],[-0.04666666666666667],[1],[0],[0],[0.9341110000004846],['target'],441834,001,2024-10-10_15h21.23.977,visual_search_exp,2024.1.5,None,2024-10-10 15h21.36.360313 +0530,
41,0,41,0,77.19913219999944,,77.10841970000001,10,77.19913219999944,77.19913219999944,0.055199200000060955,79.10313250000036,[-0.03666666666666667],[-0.31666666666666665],[1],[0],[0],[1.9401069000014104],['target'],441834,001,2024-10-10_15h21.23.977,visual_search_exp,2024.1.5,None,2024-10-10 15h21.36.360313 +0530,
42,0,42,0,79.20054139999957,,79.10877570000048,10,79.20054139999957,79.20054139999957,0.05832229999941774,81.23843569999917,[-0.5066666666666667],[-0.41],[1],[0],[0],[2.0719588000010845],['target'],441834,001,2024-10-10_15h21.23.977,visual_search_exp,2024.1.5,None,2024-10-10 15h21.36.360313 +0530,
43,0,43,0,81.3028004000007,,81.24420839999948,5,81.3028004000007,81.3028004000007,0.03073960000074294,82.72548920000008,[-0.475],[0.265],[1],[0],[0],[1.451074399999925],['target'],441834,001,2024-10-10_15h21.23.977,visual_search_exp,2024.1.5,None,2024-10-10 15h21.36.360313 +0530,
44,0,44,0,82.82053500000075,,82.73135329999968,10,82.82053500000075,82.82053500000075,0.05572589999974298,85.07533659999899,[-0.2916666666666667],[-0.12],[1],[0],[0],[2.288844299999255],['target'],441834,001,2024-10-10_15h21.23.977,visual_search_exp,2024.1.5,None,2024-10-10 15h21.36.360313 +0530,
45,0,45,0,85.14088439999978,,85.08107519999976,5,85.14088439999978,85.14088439999978,0.029952599999887752,86.71146570000019,[0.15833333333333333],[-0.485],[1],[0],[0],[1.601093999999648],['target'],441834,001,2024-10-10_15h21.23.977,visual_search_exp,2024.1.5,None,2024-10-10 15h21.36.360313 +0530,
46,0,46,0,86.80813110000054,,86.71768100000008,10,86.80813110000054,86.80813110000054,0.059926800000539515,88.71226869999919,[-0.36666666666666664],[-0.38166666666666665],[1],[0],[0],[1.9353415999994468],['target'],441834,001,2024-10-10_15h21.23.977,visual_search_exp,2024.1.5,None,2024-10-10 15h21.36.360313 +0530,
47,0,47,0,88.77793120000024,,88.71807479999916,5,88.77793120000024,88.77793120000024,0.03026809999937541,90.63190790000044,[0.31666666666666665],[-0.25166666666666665],[1],[0],[0],[1.8841955000007147],['target'],441834,001,2024-10-10_15h21.23.977,visual_search_exp,2024.1.5,None,2024-10-10 15h21.36.360313 +0530,
48,0,48,0,90.69586949999939,,90.63760299999922,5,90.69586949999939,90.69586949999939,0.02997739999955229,92.08360709999943,[0.5],[0.39666666666666667],[1],[0],[0],[1.4166218999998819],['target'],441834,001,2024-10-10_15h21.23.977,visual_search_exp,2024.1.5,None,2024-10-10 15h21.36.360313 +0530,
49,0,49,0,92.18092649999926,,92.09332150000046,10,92.18092649999926,92.18092649999926,0.06712309999966237,94.18544490000022,[-0.2],[0.43166666666666664],[1],[0],[0],[2.026540400000158],['target'],441834,001,2024-10-10_15h21.23.977,visual_search_exp,2024.1.5,None,2024-10-10 15h21.36.360313 +0530,
50,0,50,0,94.2842268000004,,94.19105750000017,10,94.2842268000004,94.2842268000004,0.056846699999368866,95.98835970000073,[0.2683333333333333],[-0.41333333333333333],[1],[0],[0],[1.7408859999995911],['target'],441834,001,2024-10-10_15h21.23.977,visual_search_exp,2024.1.5,None,2024-10-10 15h21.36.360313 +0530,
51,0,51,0,96.08549850000054,,95.99783360000038,10,96.08549850000054,96.08549850000054,0.05904300000111107,98.20736059999945,[-0.3233333333333333],[0.335],[1],[0],[0],[2.151846900000237],['target'],441834,001,2024-10-10_15h21.23.977,visual_search_exp,2024.1.5,None,2024-10-10 15h21.36.360313 +0530,
52,0,52,0,98.27254560000074,,98.21308979999958,5,98.27254560000074,98.27254560000074,0.02901720000045316,99.49099829999977,[-0.24833333333333332],[-0.12166666666666667],[1],[0],[0],[1.2494422999989183],['target'],441834,001,2024-10-10_15h21.23.977,visual_search_exp,2024.1.5,None,2024-10-10 15h21.36.360313 +0530,
53,0,53,0,99.58896769999956,,99.49679359999936,10,99.58896769999956,99.58896769999956,0.05528039999990142,100.95916799999941,[-0.11],[-0.041666666666666664],[1],[0],[0],[1.4077586000003066],['target'],441834,001,2024-10-10_15h21.23.977,visual_search_exp,2024.1.5,None,2024-10-10 15h21.36.360313 +0530,
54,0,54,0,101.02468299999964,,100.96504760000062,5,101.02468299999964,101.02468299999964,0.02950530000089202,103.32865630000015,[-0.09333333333333334],[0.46],[1],[0],[0],[2.334796600000118],['target'],441834,001,2024-10-10_15h21.23.977,visual_search_exp,2024.1.5,None,2024-10-10 15h21.36.360313 +0530,
55,0,55,0,103.39330809999956,,103.33435219999956,5,103.39330809999956,103.39330809999956,0.029411600000457838,105.11460350000016,[-0.295],[-0.21333333333333335],[1],[0],[0],[1.75131650000003],['target'],441834,001,2024-10-10_15h21.23.977,visual_search_exp,2024.1.5,None,2024-10-10 15h21.36.360313 +0530,
56,0,56,0,105.212837699999,,105.12084180000056,10,105.212837699999,105.212837699999,0.05807319999985339,106.24859599999945,[-0.13833333333333334],[0.08666666666666667],[1],[0],[0],[1.070717099999456],['target'],441834,001,2024-10-10_15h21.23.977,visual_search_exp,2024.1.5,None,2024-10-10 15h21.36.360313 +0530,
57,0,57,0,106.34677799999918,,106.25451590000011,10,106.34677799999918,106.34677799999918,0.0568306000004668,107.98514980000073,[-0.21333333333333335],[-0.23833333333333334],[1],[0],[0],[1.6743172999995295],['target'],441834,001,2024-10-10_15h21.23.977,visual_search_exp,2024.1.5,None,2024-10-10 15h21.36.360313 +0530,
58,0,58,0,108.04934859999958,,107.99089330000061,5,108.04934859999958,108.04934859999958,0.02796719999969355,109.50631909999902,[0.445],[-0.195],[1],[0],[0],[1.488005899998825],['target'],441834,001,2024-10-10_15h21.23.977,visual_search_exp,2024.1.5,None,2024-10-10 15h21.36.360313 +0530,
59,0,59,0,109.60011119999945,,109.51447159999952,10,109.60011119999945,109.60011119999945,0.06342730000142183,111.70405310000024,[0.235],[-0.018333333333333333],[1],[0],[0],[2.1275166000013996],['target'],441834,001,2024-10-10_15h21.23.977,visual_search_exp,2024.1.5,None,2024-10-10 15h21.36.360313 +0530,
60,0,60,0,111.80437560000064,,111.70988450000004,10,111.80437560000064,111.80437560000064,0.056795800001054886,113.20658650000041,[0.12333333333333334],[-0.385],[1],[0],[0],[1.4405423999996856],['target'],441834,001,2024-10-10_15h21.23.977,visual_search_exp,2024.1.5,None,2024-10-10 15h21.36.360313 +0530,
61,0,61,0,113.27030190000005,,113.2124488999998,5,113.27030190000005,113.27030190000005,0.02852079999865964,114.72911639999984,[0.37166666666666665],[0.445],[1],[0],[0],[1.488692599999922],['target'],441834,001,2024-10-10_15h21.23.977,visual_search_exp,2024.1.5,None,2024-10-10 15h21.36.360313 +0530,
62,0,62,0,114.84040020000066,,114.73834600000009,10,114.84040020000066,114.84040020000066,0.07002640000064275,116.17610690000038,[0.3416666666666667],[-0.07],[1],[0],[0],[1.3683247999997548],['target'],441834,001,2024-10-10_15h21.23.977,visual_search_exp,2024.1.5,None,2024-10-10 15h21.36.360313 +0530,
63,0,63,0,116.27397050000036,,116.1828205999991,10,116.27397050000036,116.27397050000036,0.062225399999078945,118.11307320000014,[0.3016666666666667],[-0.37166666666666665],[1],[0],[0],[1.8688151000005746],['target'],441834,001,2024-10-10_15h21.23.977,visual_search_exp,2024.1.5,None,2024-10-10 15h21.36.360313 +0530,
64,0,64,0,118.20984719999979,,118.11876289999964,10,118.20984719999979,118.20984719999979,0.053844000000026426,119.84641980000015,[0.25833333333333336],[-0.235],[1],[0],[0],[1.674376900000425],['target'],441834,001,2024-10-10_15h21.23.977,visual_search_exp,2024.1.5,None,2024-10-10 15h21.36.360313 +0530,
65,0,65,0,119.91087239999979,,119.85216050000054,5,119.91087239999979,119.91087239999979,0.029589600000690552,121.08106720000069,[-0.355],[0.03166666666666667],[1],[0],[0],[1.1999067999986437],['target'],441834,001,2024-10-10_15h21.23.977,visual_search_exp,2024.1.5,None,2024-10-10 15h21.36.360313 +0530,
66,0,66,0,121.14672360000077,,121.08675009999934,5,121.14672360000077,121.14672360000077,0.03003790000002482,122.25179340000068,[-0.04],[0.34],[1],[0],[0],[1.1356034999989788],['target'],441834,001,2024-10-10_15h21.23.977,visual_search_exp,2024.1.5,None,2024-10-10 15h21.36.360313 +0530,
67,0,67,0,122.31370659999993,,122.25755449999997,5,122.31370659999993,122.31370659999993,0.03087259999847447,123.35135219999938,[0.43333333333333335],[-0.06833333333333333],[1],[0],[0],[1.0636116000005131],['target'],441834,001,2024-10-10_15h21.23.977,visual_search_exp,2024.1.5,None,2024-10-10 15h21.36.360313 +0530,
68,0,68,0,123.44909310000003,,123.35709850000057,10,123.44909310000003,123.44909310000003,0.05761420000089856,124.51903569999922,[0.4166666666666667],[0.10333333333333333],[1],[0],[0],[1.1049748999994335],['target'],441834,001,2024-10-10_15h21.23.977,visual_search_exp,2024.1.5,None,2024-10-10 15h21.36.360313 +0530,
69,0,69,0,124.58278090000022,,124.52488559999983,5,124.58278090000022,124.58278090000022,0.029805099999066442,126.09006600000066,[0.043333333333333335],[-0.3516666666666667],[1],[0],[0],[1.536068699999305],['target'],441834,001,2024-10-10_15h21.23.977,visual_search_exp,2024.1.5,None,2024-10-10 15h21.36.360313 +0530,
70,0,70,0,126.18547969999963,,126.09582090000004,10,126.18547969999963,126.18547969999963,0.05875669999841193,128.65648920000058,[0.07],[-0.44666666666666666],[1],[0],[0],[2.5025642000000516],['target'],441834,001,2024-10-10_15h21.23.977,visual_search_exp,2024.1.5,None,2024-10-10 15h21.36.360313 +0530,
71,0,71,0,128.7540984999996,,128.66236410000056,10,128.7540984999996,128.7540984999996,0.06709890000092855,131.49273469999935,[-0.5033333333333333],[-0.4],[1],[0],[0],[2.7639149999995425],['target'],441834,001,2024-10-10_15h21.23.977,visual_search_exp,2024.1.5,None,2024-10-10 15h21.36.360313 +0530,
72,0,72,0,131.59164649999911,,131.49848989999919,10,131.59164649999911,131.59164649999911,0.057812499999272404,132.92836220000027,[-0.04],[-0.175],[1],[0],[0],[1.3726391000000149],['target'],441834,001,2024-10-10_15h21.23.977,visual_search_exp,2024.1.5,None,2024-10-10 15h21.36.360313 +0530,
73,0,73,0,133.0253821999995,,132.93407130000014,10,133.0253821999995,133.0253821999995,0.05678769999940414,134.63006959999984,[-0.3233333333333333],[0.4266666666666667],[1],[0],[0],[1.6398591000015585],['target'],441834,001,2024-10-10_15h21.23.977,visual_search_exp,2024.1.5,None,2024-10-10 15h21.36.360313 +0530,
74,0,74,0,134.69491799999923,,134.63593149999906,5,134.69491799999923,134.69491799999923,0.03013669999927515,135.98127550000027,[0.023333333333333334],[-0.15833333333333333],[1],[0],[0],[1.3157422000003862],['target'],441834,001,2024-10-10_15h21.23.977,visual_search_exp,2024.1.5,None,2024-10-10 15h21.36.360313 +0530,
75,0,75,0,136.07930119999946,,135.98695899999984,10,136.07930119999946,136.07930119999946,0.05568169999969541,139.2849239999996,[0.31166666666666665],[-0.145],[1],[0],[0],[3.2429245999992418],['target'],441834,001,2024-10-10_15h21.23.977,visual_search_exp,2024.1.5,None,2024-10-10 15h21.36.360313 +0530,
76,0,76,0,139.34988109999904,,139.2906898000001,5,139.34988109999904,139.34988109999904,0.02916230000118958,140.9558761999997,[-0.10333333333333333],[-0.46],[1],[0],[0],[1.6366589999997814],['target'],441834,001,2024-10-10_15h21.23.977,visual_search_exp,2024.1.5,None,2024-10-10 15h21.36.360313 +0530,
77,0,77,0,141.05093259999921,,140.96181029999934,10,141.05093259999921,141.05093259999921,0.056844200000341516,142.78901219999898,[0.12],[0.165],[1],[0],[0],[1.7710054999988643],['target'],441834,001,2024-10-10_15h21.23.977,visual_search_exp,2024.1.5,None,2024-10-10 15h21.36.360313 +0530,
78,0,78,0,142.85348309999972,,142.794961399999,5,142.85348309999972,142.85348309999972,0.03084110000054352,144.89369310000075,[-0.056666666666666664],[-0.155],[1],[0],[0],[2.0685659000009764],['target'],441834,001,2024-10-10_15h21.23.977,visual_search_exp,2024.1.5,None,2024-10-10 15h21.36.360313 +0530,
79,0,79,0,144.98849599999994,,144.8994363999991,10,144.98849599999994,144.98849599999994,0.05600830000003043,146.70937980000053,[-0.345],[0.38166666666666665],[1],[0],[0],[1.7545769000007567],['target'],441834,001,2024-10-10_15h21.23.977,visual_search_exp,2024.1.5,None,2024-10-10 15h21.36.360313 +0530,
80,0,80,0,146.77442250000058,,146.71516979999979,5,146.77442250000058,146.77442250000058,0.029908099999374826,148.01401140000053,[0.08833333333333333],[0.07166666666666667],[1],[0],[0],[1.2695325999993656],['target'],441834,001,2024-10-10_15h21.23.977,visual_search_exp,2024.1.5,None,2024-10-10 15h21.36.360313 +0530,
81,0,81,0,148.07497130000047,,148.01984079999966,5,148.07497130000047,148.07497130000047,0.027997499999401043,149.9298686000002,[-0.10166666666666667],[0.075],[1],[0],[0],[1.8826532000002771],['target'],441834,001,2024-10-10_15h21.23.977,visual_search_exp,2024.1.5,None,2024-10-10 15h21.36.360313 +0530,
82,0,82,0,150.02817089999917,,149.93561339999906,10,150.02817089999917,150.02817089999917,0.05553270000018529,152.10198630000014,[0.12666666666666668],[0.03666666666666667],[1],[0],[0],[2.111114600000292],['target'],441834,001,2024-10-10_15h21.23.977,visual_search_exp,2024.1.5,None,2024-10-10 15h21.36.360313 +0530,
83,0,83,0,152.16312579999976,,152.10766429999967,5,152.16312579999976,152.16312579999976,0.027900300001419964,154.9205837999998,[-0.2916666666666667],[0.4866666666666667],[1],[0],[0],[2.7855520000011893],['target'],441834,001,2024-10-10_15h21.23.977,visual_search_exp,2024.1.5,None,2024-10-10 15h21.36.360313 +0530,
84,0,84,0,154.98368870000013,,154.93053150000014,5,154.98368870000013,154.98368870000013,0.03804149999996298,156.23912569999993,[-0.23166666666666666],[0.11166666666666666],[1],[0],[0],[1.2724006999997073],['target'],441834,001,2024-10-10_15h21.23.977,visual_search_exp,2024.1.5,None,2024-10-10 15h21.36.360313 +0530,
85,0,85,0,156.33422559999963,,156.24495600000046,10,156.33422559999963,156.33422559999963,0.056478900000001886,157.45550410000033,[0.145],[-0.03333333333333333],[1],[0],[0],[1.154551800000263],['target'],441834,001,2024-10-10_15h21.23.977,visual_search_exp,2024.1.5,None,2024-10-10 15h21.36.360313 +0530,
86,0,86,0,157.5363942999993,,157.4653283000007,5,157.5363942999993,157.5363942999993,0.04167029999916849,158.65601079999942,[0.035],[0.04833333333333333],[1],[0],[0],[1.1507407999997668],['target'],441834,001,2024-10-10_15h21.23.977,visual_search_exp,2024.1.5,None,2024-10-10 15h21.36.360313 +0530,
87,0,87,0,158.75417469999957,,158.66169590000027,10,158.75417469999957,158.75417469999957,0.056781600000249455,162.66088359999958,[0.07666666666666666],[-0.27666666666666667],[1],[0],[0],[3.9430417000003217],['target'],441834,001,2024-10-10_15h21.23.977,visual_search_exp,2024.1.5,None,2024-10-10 15h21.36.360313 +0530,
88,0,88,0,162.7259629,,162.66660039999988,5,162.7259629,162.7259629,0.029239900000902708,164.5317601000006,[0.4],[-0.305],[1],[0],[0],[1.8365709000008792],['target'],441834,001,2024-10-10_15h21.23.977,visual_search_exp,2024.1.5,None,2024-10-10 15h21.36.360313 +0530,
89,0,89,0,164.62688750000052,,164.5377255000003,10,164.62688750000052,164.62688750000052,0.05494399999952293,168.51669559999937,[-0.42833333333333334],[0.455],[1],[0],[0],[3.924626399999397],['target'],441834,001,2024-10-10_15h21.23.977,visual_search_exp,2024.1.5,None,2024-10-10 15h21.36.360313 +0530,
90,0,90,0,168.59846900000048,,168.5223848000005,10,168.59846900000048,168.59846900000048,0.053164399998422596,170.60390369999914,[-0.2783333333333333],[-0.09],[1],[0],[0],[2.0288246999989497],['target'],441834,001,2024-10-10_15h21.23.977,visual_search_exp,2024.1.5,None,2024-10-10 15h21.36.360313 +0530,
91,0,91,0,170.70016849999956,,170.6141962999991,10,170.70016849999956,170.70016849999956,0.0629599000003509,171.90437349999956,[0.175],[0.08666666666666667],[1],[0],[0],[1.2291404999996303],['target'],441834,001,2024-10-10_15h21.23.977,visual_search_exp,2024.1.5,None,2024-10-10 15h21.36.360313 +0530,
92,0,92,0,172.00294519999989,,171.91020740000022,10,172.00294519999989,172.00294519999989,0.056590700000015204,174.15662080000038,[-0.25166666666666665],[-0.455],[1],[0],[0],[2.1903024000002915],['target'],441834,001,2024-10-10_15h21.23.977,visual_search_exp,2024.1.5,None,2024-10-10 15h21.36.360313 +0530,
93,0,93,0,174.2716079999991,,174.16259139999966,10,174.2716079999991,174.2716079999991,0.06917480000083742,175.5412856999992,[-0.12166666666666667],[0.31],[1],[0],[0],[1.310129000001325],['target'],441834,001,2024-10-10_15h21.23.977,visual_search_exp,2024.1.5,None,2024-10-10 15h21.36.360313 +0530,
94,0,94,0,175.6058109000005,,175.55092010000044,5,175.6058109000005,175.6058109000005,0.04046510000080161,177.1953493000001,[-0.235],[-0.23],[1],[0],[0],[1.6054319000013493],['target'],441834,001,2024-10-10_15h21.23.977,visual_search_exp,2024.1.5,None,2024-10-10 15h21.36.360313 +0530,
95,0,95,0,177.25793010000052,,177.20105580000018,5,177.25793010000052,177.25793010000052,0.027870699999766657,178.37984139999935,[0.2683333333333333],[0.4166666666666667],[1],[0],[0],[1.1516814999995404],['target'],441834,001,2024-10-10_15h21.23.977,visual_search_exp,2024.1.5,None,2024-10-10 15h21.36.360313 +0530,
96,0,96,0,178.45870370000011,,178.3855079999994,10,178.45870370000011,178.45870370000011,0.05308110000078159,179.89703379999992,[-0.49166666666666664],[-0.13],[1],[0],[0],[1.4588414000008925],['target'],441834,001,2024-10-10_15h21.23.977,visual_search_exp,2024.1.5,None,2024-10-10 15h21.36.360313 +0530,
97,0,97,0,179.99612089999937,,179.90339040000072,10,179.99612089999937,179.99612089999937,0.06308839999837801,181.26405469999918,[0.17166666666666666],[0.47333333333333333],[1],[0],[0],[1.2982026000008773],['target'],441834,001,2024-10-10_15h21.23.977,visual_search_exp,2024.1.5,None,2024-10-10 15h21.36.360313 +0530,
98,0,98,0,181.36229169999933,,181.2700101999999,10,181.36229169999933,181.36229169999933,0.06129799999871466,182.3998307999991,[0.18833333333333332],[0.455],[1],[0],[0],[1.0690494000009494],['target'],441834,001,2024-10-10_15h21.23.977,visual_search_exp,2024.1.5,None,2024-10-10 15h21.36.360313 +0530,
99,0,99,0,182.49721110000064,,182.4062128000005,10,182.49721110000064,182.49721110000064,0.06534889999966254,184.16741309999998,[-0.37666666666666665],[-0.4],[1],[0],[0],[1.6965799999998126],['target'],441834,001,2024-10-10_15h21.23.977,visual_search_exp,2024.1.5,None,2024-10-10 15h21.36.360313 +0530,
100,0,100,0,184.24824439999975,,184.17304259999946,10,184.24824439999975,184.24824439999975,0.05311559999972815,185.51858189999984,[-0.05],[-0.13333333333333333],[1],[0],[0],[1.2930455999994592],['target'],441834,001,2024-10-10_15h21.23.977,visual_search_exp,2024.1.5,None,2024-10-10 15h21.36.360313 +0530,
101,0,101,0,185.58411259999957,,185.52440699999897,5,185.58411259999957,185.58411259999957,0.029929899999842746,186.65273220000017,[0.025],[0.38666666666666666],[1],[0],[0],[1.0990230000006704],['target'],441834,001,2024-10-10_15h21.23.977,visual_search_exp,2024.1.5,None,2024-10-10 15h21.36.360313 +0530,
102,0,102,0,186.7009839000002,,186.65837739999915,5,186.7009839000002,186.7009839000002,0.02876009999999951,188.1571029000006,[-0.26666666666666666],[0.42],[1],[0],[0],[1.4705599999997503],['target'],441834,001,2024-10-10_15h21.23.977,visual_search_exp,2024.1.5,None,2024-10-10 15h21.36.360313 +0530,
103,0,103,0,188.25237229999948,,188.16286480000053,10,188.25237229999948,188.25237229999948,0.05503420000059123,190.39044579999972,[0.21833333333333332],[-0.02666666666666667],[1],[0],[0],[2.1732062000010046],['target'],441834,001,2024-10-10_15h21.23.977,visual_search_exp,2024.1.5,None,2024-10-10 15h21.36.360313 +0530,
104,0,104,0,190.48909660000027,,190.39658299999974,10,190.48909660000027,190.48909660000027,0.05749439999999595,193.06053539999994,[0.235],[0.055],[1],[0],[0],[2.607158900000286],['target'],441834,001,2024-10-10_15h21.23.977,visual_search_exp,2024.1.5,None,2024-10-10 15h21.36.360313 +0530,
105,0,105,0,193.12503730000026,,193.0662725000002,5,193.12503730000026,193.12503730000026,0.029347899999265792,194.0782178999998,[-0.045],[0.42333333333333334],[1],[0],[0],[0.9831649999996444],['target'],441834,001,2024-10-10_15h21.23.977,visual_search_exp,2024.1.5,None,2024-10-10 15h21.36.360313 +0530,
106,0,106,0,194.1591411999998,,194.08392119999917,10,194.1591411999998,194.1591411999998,0.055027100001098006,195.7971452999991,[0.315],[0.02666666666666667],[1],[0],[0],[1.6586117000006197],['target'],441834,001,2024-10-10_15h21.23.977,visual_search_exp,2024.1.5,None,2024-10-10 15h21.36.360313 +0530,
107,0,107,0,195.86162719999993,,195.80280130000028,5,195.86162719999993,195.86162719999993,0.030462700000498444,196.95126159999927,[-0.035],[0.31833333333333336],[1],[0],[0],[1.1185325000005832],['target'],441834,001,2024-10-10_15h21.23.977,visual_search_exp,2024.1.5,None,2024-10-10 15h21.36.360313 +0530,
108,0,108,0,197.01260999999977,,196.9571579000003,5,197.01260999999977,197.01260999999977,0.030378400000699912,198.0495061999991,[-0.43666666666666665],[-0.185],[1],[0],[0],[1.0625426999995398],['target'],441834,001,2024-10-10_15h21.23.977,visual_search_exp,2024.1.5,None,2024-10-10 15h21.36.360313 +0530,
109,0,109,0,198.11405449999984,,198.05530299999918,5,198.11405449999984,198.11405449999984,0.029997400000866037,199.0174647999993,[0.021666666666666667],[0.17],[1],[0],[0],[0.9327147999993031],['target'],441834,001,2024-10-10_15h21.23.977,visual_search_exp,2024.1.5,None,2024-10-10 15h21.36.360313 +0530,
110,0,110,0,199.08217779999904,,199.02320490000056,5,199.08217779999904,199.08217779999904,0.030017099999895436,200.02099070000077,[-0.22666666666666666],[0.335],[1],[0],[0],[0.9684161999994103],['target'],441834,001,2024-10-10_15h21.23.977,visual_search_exp,2024.1.5,None,2024-10-10 15h21.36.360313 +0530,
111,0,111,0,200.11567060000016,,200.02679549999993,10,200.11567060000016,200.11567060000016,0.0539980999983527,201.1189921999994,[-0.041666666666666664],[0.20833333333333334],[1],[0],[0],[1.0388413999990007],['target'],441834,001,2024-10-10_15h21.23.977,visual_search_exp,2024.1.5,None,2024-10-10 15h21.36.360313 +0530,
112,0,112,0,201.184185099999,,201.12481359999947,5,201.184185099999,201.184185099999,0.03077599999960512,202.75467879999997,[0.5016666666666667],[-0.4116666666666667],[1],[0],[0],[1.5992255999990448],['target'],441834,001,2024-10-10_15h21.23.977,visual_search_exp,2024.1.5,None,2024-10-10 15h21.36.360313 +0530,
113,0,113,0,202.81852029999936,,202.76040529999955,5,202.81852029999936,202.81852029999936,0.02979560000130732,204.47228890000042,[0.47833333333333333],[-0.4483333333333333],[1],[0],[0],[1.6826784000004409],['target'],441834,001,2024-10-10_15h21.23.977,visual_search_exp,2024.1.5,None,2024-10-10 15h21.36.360313 +0530,
114,0,114,0,204.53812239999934,,204.47806850000052,5,204.53812239999934,204.53812239999934,0.029920800001491443,206.62845170000037,[0.03],[0.22333333333333333],[1],[0],[0],[2.121022199999061],['target'],441834,001,2024-10-10_15h21.23.977,visual_search_exp,2024.1.5,None,2024-10-10 15h21.36.360313 +0530,
115,0,115,0,206.72299779999958,,206.63412020000032,10,206.72299779999958,206.72299779999958,0.05665930000031949,208.19303740000032,[-0.265],[-0.27],[1],[0],[0],[1.5029294999985723],['target'],441834,001,2024-10-10_15h21.23.977,visual_search_exp,2024.1.5,None,2024-10-10 15h21.36.360313 +0530,
116,0,116,0,208.2591095000007,,208.19888600000013,5,208.2591095000007,208.2591095000007,0.029156499998862273,209.4456162000006,[-0.26],[-0.095],[1],[0],[0],[1.218230999998923],['target'],441834,001,2024-10-10_15h21.23.977,visual_search_exp,2024.1.5,None,2024-10-10 15h21.36.360313 +0530,
117,0,117,0,209.5090509999991,,209.45118770000045,5,209.5090509999991,209.5090509999991,0.02916179999920132,211.2496288000002,[-0.19833333333333333],[0.23333333333333334],[1],[0],[0],[1.7698198999987653],['target'],441834,001,2024-10-10_15h21.23.977,visual_search_exp,2024.1.5,None,2024-10-10 15h21.36.360313 +0530,
118,0,118,0,211.31198140000015,,211.25617760000023,5,211.31198140000015,211.31198140000015,0.028243400000064867,212.21580879999965,[-0.18333333333333332],[0.3883333333333333],[1],[0],[0],[0.9318259000010585],['target'],441834,001,2024-10-10_15h21.23.977,visual_search_exp,2024.1.5,None,2024-10-10 15h21.36.360313 +0530,
119,0,119,0,212.31233500000053,,212.22166579999976,10,212.31233500000053,212.31233500000053,0.06371089999993274,213.9001318999999,[0.10666666666666667],[0.07333333333333333],[1],[0],[0],[1.6153883999995742],['target'],441834,001,2024-10-10_15h21.23.977,visual_search_exp,2024.1.5,None,2024-10-10 15h21.36.360313 +0530,
120,0,120,0,213.98150290000012,,213.9058141000005,10,213.98150290000012,213.98150290000012,0.05386919999909878,216.51914989999932,[0.42],[0.38666666666666666],[1],[0],[0],[2.559954700000162],['target'],441834,001,2024-10-10_15h21.23.977,visual_search_exp,2024.1.5,None,2024-10-10 15h21.36.360313 +0530,
121,0,121,0,216.57016479999947,,216.5247961999994,5,216.57016479999947,216.57016479999947,0.02850419999958831,218.60876029999963,[0.08],[-0.33],[1],[0],[0],[2.055990599999859],['target'],441834,001,2024-10-10_15h21.23.977,visual_search_exp,2024.1.5,None,2024-10-10 15h21.36.360313 +0530,
122,0,122,0,218.70267869999952,,218.61455209999986,10,218.70267869999952,218.70267869999952,0.05530929999986256,220.62435929999992,[0.18],[0.47],[1],[0],[0],[1.9551041000013356],['target'],441834,001,2024-10-10_15h21.23.977,visual_search_exp,2024.1.5,None,2024-10-10 15h21.36.360313 +0530,
123,0,123,0,220.72242580000056,,220.6301397999996,10,220.72242580000056,220.72242580000056,0.05514460000085819,222.2926480999995,[-0.325],[0.09666666666666666],[1],[0],[0],[1.6079766000002564],['target'],441834,001,2024-10-10_15h21.23.977,visual_search_exp,2024.1.5,None,2024-10-10 15h21.36.360313 +0530,
124,0,124,0,222.37340620000032,,222.29835640000056,10,222.37340620000032,222.37340620000032,0.054253399999652174,224.11157429999912,[-0.465],[-0.06666666666666667],[1],[0],[0],[1.7595532999985153],['target'],441834,001,2024-10-10_15h21.23.977,visual_search_exp,2024.1.5,None,2024-10-10 15h21.36.360313 +0530,
125,0,125,0,224.17627100000027,,224.1174217000007,5,224.17627100000027,224.17627100000027,0.0294039000000339,225.44705609999983,[0.3416666666666667],[0.37833333333333335],[1],[0],[0],[1.3008069000006799],['target'],441834,001,2024-10-10_15h21.23.977,visual_search_exp,2024.1.5,None,2024-10-10 15h21.36.360313 +0530,
126,0,126,0,225.50992729999962,,225.4527478,5,225.50992729999962,225.50992729999962,0.029734100000496255,226.63091229999918,[0.25833333333333336],[0.11166666666666666],[1],[0],[0],[1.1490807999998651],['target'],441834,001,2024-10-10_15h21.23.977,visual_search_exp,2024.1.5,None,2024-10-10 15h21.36.360313 +0530,
127,0,127,0,226.67810389999977,,226.63654139999926,5,226.67810389999977,226.67810389999977,0.02897089999896707,227.79861789999995,[-0.12],[0.43833333333333335],[1],[0],[0],[1.1336650000012014],['target'],441834,001,2024-10-10_15h21.23.977,visual_search_exp,2024.1.5,None,2024-10-10 15h21.36.360313 +0530,
128,0,128,0,227.8966423999991,,227.80430849999902,10,227.8966423999991,227.8966423999991,0.05485399999997753,229.86756930000047,[-0.26166666666666666],[-0.16833333333333333],[1],[0],[0],[2.008985799999209],['target'],441834,001,2024-10-10_15h21.23.977,visual_search_exp,2024.1.5,None,2024-10-10 15h21.36.360313 +0530,
129,0,129,0,229.93158559999938,,229.87319249999928,5,229.93158559999938,229.93158559999938,0.0299431999992521,231.23837429999912,[0.06166666666666667],[-0.03833333333333333],[1],[0],[0],[1.3357436000005691],['target'],441834,001,2024-10-10_15h21.23.977,visual_search_exp,2024.1.5,None,2024-10-10 15h21.36.360313 +0530,
130,0,130,0,231.33404990000054,,231.24416050000036,10,231.33404990000054,231.33404990000054,0.05465189999995346,233.00449280000066,[-0.3333333333333333],[0.30833333333333335],[1],[0],[0],[1.7061723999995593],['target'],441834,001,2024-10-10_15h21.23.977,visual_search_exp,2024.1.5,None,2024-10-10 15h21.36.360313 +0530,
131,0,131,0,233.06855759999962,,233.01048789999913,5,233.06855759999962,233.06855759999962,0.03129119999903196,234.40663959999983,[-0.013333333333333334],[-0.295],[1],[0],[0],[1.3654428999998345],['target'],441834,001,2024-10-10_15h21.23.977,visual_search_exp,2024.1.5,None,2024-10-10 15h21.36.360313 +0530,
132,0,132,0,234.47103389999938,,234.41248950000045,5,234.47103389999938,234.47103389999938,0.03074870000091323,235.64135109999916,[-0.2866666666666667],[0.03333333333333333],[1],[0],[0],[1.1986639999995532],['target'],441834,001,2024-10-10_15h21.23.977,visual_search_exp,2024.1.5,None,2024-10-10 15h21.36.360313 +0530,
133,0,133,0,235.72158579999996,,235.65239830000064,5,235.72158579999996,235.72158579999996,0.039140799999586307,237.27460880000035,[0.24166666666666667],[0.4],[1],[0],[0],[1.5847004000006564],['target'],441834,001,2024-10-10_15h21.23.977,visual_search_exp,2024.1.5,None,2024-10-10 15h21.36.360313 +0530,
134,0,134,0,237.37344389999998,,237.28019780000068,10,237.37344389999998,237.37344389999998,0.05568509999829985,238.41024939999988,[-0.38666666666666666],[0.06833333333333333],[1],[0],[0],[1.0749783000010211],['target'],441834,001,2024-10-10_15h21.23.977,visual_search_exp,2024.1.5,None,2024-10-10 15h21.36.360313 +0530,
135,0,135,0,238.51089150000007,,238.4160410000004,10,238.51089150000007,238.51089150000007,0.05516639999950712,239.69527759999983,[0.043333333333333335],[-0.255],[1],[0],[0],[1.2247695999994903],['target'],441834,001,2024-10-10_15h21.23.977,visual_search_exp,2024.1.5,None,2024-10-10 15h21.36.360313 +0530,
136,0,136,0,239.77702189999945,,239.70107690000077,10,239.77702189999945,239.77702189999945,0.054354599998987396,241.21415490000072,[-0.31166666666666665],[-0.006666666666666667],[1],[0],[0],[1.4593060000006517],['target'],441834,001,2024-10-10_15h21.23.977,visual_search_exp,2024.1.5,None,2024-10-10 15h21.36.360313 +0530,
137,0,137,0,241.2772703999999,,241.21997539999938,5,241.2772703999999,241.2772703999999,0.028651000000536442,242.76555749999898,[-0.13333333333333333],[0.2783333333333333],[1],[0],[0],[1.5175679999993008],['target'],441834,001,2024-10-10_15h21.23.977,visual_search_exp,2024.1.5,None,2024-10-10 15h21.36.360313 +0530,
138,0,138,0,242.8300003000004,,242.7714329999999,5,242.8300003000004,242.8300003000004,0.031021299999338225,243.79857769999944,[-0.021666666666666667],[0.165],[1],[0],[0],[0.996903299999758],['target'],441834,001,2024-10-10_15h21.23.977,visual_search_exp,2024.1.5,None,2024-10-10 15h21.36.360313 +0530,
139,0,139,0,243.8469886999992,,243.80435489999945,5,243.8469886999992,243.8469886999992,0.028444499999750406,245.13406199999918,[-0.285],[-0.34833333333333333],[1],[0],[0],[1.3019874000001437],['target'],441834,001,2024-10-10_15h21.23.977,visual_search_exp,2024.1.5,None,2024-10-10 15h21.36.360313 +0530,
140,0,140,0,245.21506339999905,,245.13966009999967,10,245.21506339999905,245.21506339999905,0.05516009999882954,246.55378799999926,[0.23833333333333334],[0.04666666666666667],[1],[0],[0],[1.3594762000011542],['target'],441834,001,2024-10-10_15h21.23.977,visual_search_exp,2024.1.5,None,2024-10-10 15h21.36.360313 +0530,
141,0,141,0,246.65137529999993,,246.5595728999997,10,246.65137529999993,246.65137529999993,0.053696499999205116,248.25465620000068,[-0.18],[0.385],[1],[0],[0],[1.6420323999991524],['target'],441834,001,2024-10-10_15h21.23.977,visual_search_exp,2024.1.5,None,2024-10-10 15h21.36.360313 +0530,
142,0,142,0,248.35160949999954,,248.2604907999994,10,248.35160949999954,248.35160949999954,0.0554625999993732,250.22300089999953,[0.3233333333333333],[-0.01],[1],[0],[0],[1.9077069999984815],['target'],441834,001,2024-10-10_15h21.23.977,visual_search_exp,2024.1.5,None,2024-10-10 15h21.36.360313 +0530,
143,0,143,0,250.30463059999965,,250.228658,10,250.30463059999965,250.30463059999965,0.05268400000022666,251.3071672999995,[0.305],[0.04833333333333333],[1],[0],[0],[1.0263993000007758],['target'],441834,001,2024-10-10_15h21.23.977,visual_search_exp,2024.1.5,None,2024-10-10 15h21.36.360313 +0530,
144,0,144,0,251.38858009999967,,251.3130342000004,10,251.38858009999967,251.38858009999967,0.05534609999995155,252.7924043999992,[-0.07833333333333334],[0.25333333333333335],[1],[0],[0],[1.424683000001096],['target'],441834,001,2024-10-10_15h21.23.977,visual_search_exp,2024.1.5,None,2024-10-10 15h21.36.360313 +0530,
145,0,145,0,252.8573675000007,,252.7981467999998,5,252.8573675000007,252.8573675000007,0.028777800000170828,254.59477630000038,[0.26666666666666666],[0.4533333333333333],[1],[0],[0],[1.7684644000000844],['target'],441834,001,2024-10-10_15h21.23.977,visual_search_exp,2024.1.5,None,2024-10-10 15h21.36.360313 +0530,
146,0,146,0,254.65933960000075,,254.6007451000005,5,254.65933960000075,254.65933960000075,0.03640120000090974,255.7981677000007,[0.205],[0.18166666666666667],[1],[0],[0],[1.1618708000005427],['target'],441834,001,2024-10-10_15h21.23.977,visual_search_exp,2024.1.5,None,2024-10-10 15h21.36.360313 +0530,
147,0,147,0,255.89336639999965,,255.8038708999993,10,255.89336639999965,255.89336639999965,0.05428879999999481,258.5318188000001,[0.21833333333333332],[-0.44333333333333336],[1],[0],[0],[2.6743489999989833],['target'],441834,001,2024-10-10_15h21.23.977,visual_search_exp,2024.1.5,None,2024-10-10 15h21.36.360313 +0530,
148,0,148,0,258.5972829000002,,258.53812199999993,5,258.5972829000002,258.5972829000002,0.02908470000147645,260.5678310000003,[-0.41833333333333333],[0.34833333333333333],[1],[0],[0],[2.001311700001679],['target'],441834,001,2024-10-10_15h21.23.977,visual_search_exp,2024.1.5,None,2024-10-10 15h21.36.360313 +0530,
149,0,149,0,260.64841630000046,,260.5735535999993,10,260.64841630000046,260.64841630000046,0.05461780000041472,261.7184070000003,[-0.30666666666666664],[0.44],[1],[0],[0],[1.0908830999997008],['target'],441834,001,2024-10-10_15h21.23.977,visual_search_exp,2024.1.5,None,2024-10-10 15h21.36.360313 +0530,
150,0,150,0,261.8004533000003,,261.7241620999994,10,261.8004533000003,261.8004533000003,0.05444329999954789,263.2708521000004,[-0.0033333333333333335],[0.155],[1],[0],[0],[1.4928471999992325],['target'],441834,001,2024-10-10_15h21.23.977,visual_search_exp,2024.1.5,None,2024-10-10 15h21.36.360313 +0530,
151,0,151,0,263.3352348999997,,263.2765232999991,5,263.3352348999997,263.3352348999997,0.029454199999236153,265.13894249999976,[0.235],[-0.35333333333333333],[1],[0],[0],[1.8335633000006055],['target'],441834,001,2024-10-10_15h21.23.977,visual_search_exp,2024.1.5,None,2024-10-10 15h21.36.360313 +0530,
152,0,152,0,265.2368674999998,,265.1446823999995,10,265.2368674999998,265.2368674999998,0.05485030000090774,267.02421219999997,[0.4816666666666667],[-0.33],[1],[0],[0],[1.8253502999996272],['target'],441834,001,2024-10-10_15h21.23.977,visual_search_exp,2024.1.5,None,2024-10-10 15h21.36.360313 +0530,
153,0,153,0,267.08974359999957,,267.02986950000013,5,267.08974359999957,267.08974359999957,0.030022300001292024,268.6933764000005,[-0.15166666666666667],[0.10333333333333333],[1],[0],[0],[1.6340698000003613],['target'],441834,001,2024-10-10_15h21.23.977,visual_search_exp,2024.1.5,None,2024-10-10 15h21.36.360313 +0530,
154,0,154,0,268.7907402000001,,268.69924790000005,10,268.7907402000001,268.7907402000001,0.0556365000011283,269.69436270000006,[0.03666666666666667],[0.17666666666666667],[1],[0],[0],[0.9402162999995198],['target'],441834,001,2024-10-10_15h21.23.977,visual_search_exp,2024.1.5,None,2024-10-10 15h21.36.360313 +0530,
155,0,155,0,269.7590713999998,,269.70030210000004,5,269.7590713999998,269.7590713999998,0.029077799999868148,270.98263190000034,[-0.18666666666666668],[0.39666666666666667],[1],[0],[0],[1.253795299999183],['target'],441834,001,2024-10-10_15h21.23.977,visual_search_exp,2024.1.5,None,2024-10-10 15h21.36.360313 +0530,
156,0,156,0,271.0431200999992,,270.98847019999994,5,271.0431200999992,271.0431200999992,0.029475800000000163,272.3302571000004,[0.4716666666666667],[-0.21666666666666667],[1],[0],[0],[1.3130118999997649],['target'],441834,001,2024-10-10_15h21.23.977,visual_search_exp,2024.1.5,None,2024-10-10 15h21.36.360313 +0530,
157,0,157,0,272.42919860000075,,272.3361796999998,10,272.42919860000075,272.42919860000075,0.05731530000048224,273.91540990000067,[0.235],[-0.3383333333333333],[1],[0],[0],[1.5224368999988656],['target'],441834,001,2024-10-10_15h21.23.977,visual_search_exp,2024.1.5,None,2024-10-10 15h21.36.360313 +0530,
158,0,158,0,273.9802380000001,,273.92120350000005,5,273.9802380000001,273.9802380000001,0.0305238000000827,275.11902569999984,[-0.2683333333333333],[0.12666666666666668],[1],[0],[0],[1.167873000000327],['target'],441834,001,2024-10-10_15h21.23.977,visual_search_exp,2024.1.5,None,2024-10-10 15h21.36.360313 +0530,
159,0,159,0,275.1978679999993,,275.1248276000006,10,275.1978679999993,275.1978679999993,0.052856800000881776,276.1357308000006,[-0.18833333333333332],[0.4083333333333333],[1],[0],[0],[0.958390200001304],['target'],441834,001,2024-10-10_15h21.23.977,visual_search_exp,2024.1.5,None,2024-10-10 15h21.36.360313 +0530,
160,0,160,0,276.21717369999897,,276.14706379999916,5,276.21717369999897,276.21717369999897,0.04055250000055821,277.2359627000005,[0.15666666666666668],[0.34],[1],[0],[0],[1.050197800001115],['target'],441834,001,2024-10-10_15h21.23.977,visual_search_exp,2024.1.5,None,2024-10-10 15h21.36.360313 +0530,
161,0,161,0,277.28346260000035,,277.2417132999999,5,277.28346260000035,277.28346260000035,0.0284336999993684,278.5232990000004,[0.20833333333333334],[0.41333333333333333],[1],[0],[0],[1.25379090000024],['target'],441834,001,2024-10-10_15h21.23.977,visual_search_exp,2024.1.5,None,2024-10-10 15h21.36.360313 +0530,
162,0,162,0,278.61812269999973,,278.52897119999943,10,278.61812269999973,278.61812269999973,0.056401499999992666,279.68908439999905,[0.15],[-0.015],[1],[0],[0],[1.1042613000008714],['target'],441834,001,2024-10-10_15h21.23.977,visual_search_exp,2024.1.5,None,2024-10-10 15h21.36.360313 +0530,
163,0,163,0,279.75332549999985,,279.6948398000004,5,279.75332549999985,279.75332549999985,0.030588800000259653,281.911565299999,[-0.33],[0.02],[1],[0],[0],[2.186635000000024],['target'],441834,001,2024-10-10_15h21.23.977,visual_search_exp,2024.1.5,None,2024-10-10 15h21.36.360313 +0530,
164,0,164,0,282.0050931000005,,281.9172242000004,10,282.0050931000005,282.0050931000005,0.055373500001223874,283.59305270000004,[-0.42833333333333334],[0.43666666666666665],[1],[0],[0],[1.62097200000062],['target'],441834,001,2024-10-10_15h21.23.977,visual_search_exp,2024.1.5,None,2024-10-10 15h21.36.360313 +0530,
165,0,165,0,283.69113730000026,,283.59883850000006,10,283.69113730000026,283.69113730000026,0.056524099998569,285.9953024999995,[-0.37166666666666665],[-0.13166666666666665],[1],[0],[0],[2.3405834999994113],['target'],441834,001,2024-10-10_15h21.23.977,visual_search_exp,2024.1.5,None,2024-10-10 15h21.36.360313 +0530,
166,0,166,0,286.0590752999997,,286.0012052000002,5,286.0590752999997,286.0590752999997,0.029027800001131254,287.06601860000046,[-0.08833333333333333],[0.27166666666666667],[1],[0],[0],[1.0363648000002286],['target'],441834,001,2024-10-10_15h21.23.977,visual_search_exp,2024.1.5,None,2024-10-10 15h21.36.360313 +0530,
167,0,167,0,287.1615445999996,,287.07190830000036,10,287.1615445999996,287.1615445999996,0.05683820000012929,288.6153981000007,[-0.2866666666666667],[0.095],[1],[0],[0],[1.4872795999999653],['target'],441834,001,2024-10-10_15h21.23.977,visual_search_exp,2024.1.5,None,2024-10-10 15h21.36.360313 +0530,
168,0,168,0,288.7134719000005,,288.6212273000001,10,288.7134719000005,288.7134719000005,0.06072110000059183,291.61916500000007,[-0.02666666666666667],[0.016666666666666666],[1],[0],[0],[2.937678500000402],['target'],441834,001,2024-10-10_15h21.23.977,visual_search_exp,2024.1.5,None,2024-10-10 15h21.36.360313 +0530,
169,0,169,0,291.6829662,,291.62520179999956,5,291.6829662,291.6829662,0.03460909999921569,293.65400020000016,[-0.4],[-0.008333333333333333],[1],[0],[0],[1.9948779999995168],['target'],441834,001,2024-10-10_15h21.23.977,visual_search_exp,2024.1.5,None,2024-10-10 15h21.36.360313 +0530,
170,0,170,0,293.7532417000002,,293.65968260000045,10,293.7532417000002,293.7532417000002,0.06114770000021963,294.97189590000016,[-0.11],[0.285],[1],[0],[0],[1.2517138000002888],['target'],441834,001,2024-10-10_15h21.23.977,visual_search_exp,2024.1.5,None,2024-10-10 15h21.36.360313 +0530,
171,0,171,0,295.0364671999996,,294.97785660000045,5,295.0364671999996,295.0364671999996,0.031566099998599384,296.66005199999927,[0.4216666666666667],[-0.065],[1],[0],[0],[1.6512863999996625],['target'],441834,001,2024-10-10_15h21.23.977,visual_search_exp,2024.1.5,None,2024-10-10 15h21.36.360313 +0530,
172,0,172,0,296.7548164,,296.66573439999956,10,296.7548164,296.7548164,0.055763200000001234,297.5913629000006,[0.29833333333333334],[0.065],[1],[0],[0],[0.8705214000001433],['target'],441834,001,2024-10-10_15h21.23.977,visual_search_exp,2024.1.5,None,2024-10-10 15h21.36.360313 +0530,
173,0,173,0,297.6389992000004,,297.5971071999993,5,297.6389992000004,297.6389992000004,0.028340300001218566,299.0766363999992,[-0.3933333333333333],[-0.155],[1],[0],[0],[1.4518121999990399],['target'],441834,001,2024-10-10_15h21.23.977,visual_search_exp,2024.1.5,None,2024-10-10 15h21.36.360313 +0530,
174,0,174,0,299.1582010000002,,299.08243720000064,10,299.1582010000002,299.1582010000002,0.0535704000012629,300.34494799999993,[0.0016666666666666668],[0.46166666666666667],[1],[0],[0],[1.2094443000005413],['target'],441834,001,2024-10-10_15h21.23.977,visual_search_exp,2024.1.5,None,2024-10-10 15h21.36.360313 +0530,
175,0,175,0,300.40971309999986,,300.3507086999998,5,300.40971309999986,300.40971309999986,0.030496800000037183,302.14918600000055,[-0.35333333333333333],[0.16833333333333333],[1],[0],[0],[1.7686074000012013],['target'],441834,001,2024-10-10_15h21.23.977,visual_search_exp,2024.1.5,None,2024-10-10 15h21.36.360313 +0530,
176,0,176,0,302.2106117000003,,302.15507120000075,5,302.2106117000003,302.2106117000003,0.028771400000550784,303.58141950000027,[-0.3016666666666667],[-0.2816666666666667],[1],[0],[0],[1.398256999998921],['target'],441834,001,2024-10-10_15h21.23.977,visual_search_exp,2024.1.5,None,2024-10-10 15h21.36.360313 +0530,
177,0,177,0,303.62895070000013,,303.5872137000006,5,303.62895070000013,303.62895070000013,0.028263300000617164,304.7994591000006,[-0.115],[0.135],[1],[0],[0],[1.184594600001219],['target'],441834,001,2024-10-10_15h21.23.977,visual_search_exp,2024.1.5,None,2024-10-10 15h21.36.360313 +0530,
178,0,178,0,304.89765330000046,,304.80515770000056,10,304.89765330000046,304.89765330000046,0.055927800000063144,306.2343201999993,[0.16166666666666665],[0.4483333333333333],[1],[0],[0],[1.373877399999401],['target'],441834,001,2024-10-10_15h21.23.977,visual_search_exp,2024.1.5,None,2024-10-10 15h21.36.360313 +0530,
179,0,179,0,306.29894969999987,,306.24000949999936,5,306.29894969999987,306.29894969999987,0.030524799998602248,307.6858228000001,[0.29],[-0.09333333333333334],[1],[0],[0],[1.415934799999377],['target'],441834,001,2024-10-10_15h21.23.977,visual_search_exp,2024.1.5,None,2024-10-10 15h21.36.360313 +0530,
180,0,180,0,307.76679669999976,,307.69146360000013,10,307.76679669999976,307.76679669999976,0.055959100000109174,309.0371570999996,[0.37833333333333335],[0.1],[1],[0],[0],[1.2903688000005786],['target'],441834,001,2024-10-10_15h21.23.977,visual_search_exp,2024.1.5,None,2024-10-10 15h21.36.360313 +0530,
181,0,181,0,309.1022073000004,,309.0429684999999,5,309.1022073000004,309.1022073000004,0.03144929999871238,310.3251674999992,[0.16666666666666666],[0.48],[1],[0],[0],[1.2513847000009264],['target'],441834,001,2024-10-10_15h21.23.977,visual_search_exp,2024.1.5,None,2024-10-10 15h21.36.360313 +0530,
182,0,182,0,310.38673430000017,,310.3308455999995,5,310.38673430000017,310.38673430000017,0.02917909999996482,313.07489800000076,[-0.40166666666666667],[-0.46166666666666667],[1],[0],[0],[2.715577000000849],['target'],441834,001,2024-10-10_15h21.23.977,visual_search_exp,2024.1.5,None,2024-10-10 15h21.36.360313 +0530,
183,0,183,0,313.17278889999943,,313.08043,10,313.17278889999943,313.17278889999943,0.056474600000001374,314.3944981000004,[-0.42],[0.145],[1],[0],[0],[1.2581133999992744],['target'],441834,001,2024-10-10_15h21.23.977,visual_search_exp,2024.1.5,None,2024-10-10 15h21.36.360313 +0530,
184,0,184,0,314.45829869999943,,314.4042697999994,5,314.45829869999943,314.45829869999943,0.03809419999925012,315.91159340000013,[-0.18],[-0.13166666666666665],[1],[0],[0],[1.4708253999997396],['target'],441834,001,2024-10-10_15h21.23.977,visual_search_exp,2024.1.5,None,2024-10-10 15h21.36.360313 +0530,
185,0,185,0,315.99253409999983,,315.91714390000016,10,315.99253409999983,315.99253409999983,0.05195900000035181,317.7634632999998,[-0.465],[-0.38166666666666665],[1],[0],[0],[1.794997400000284],['target'],441834,001,2024-10-10_15h21.23.977,visual_search_exp,2024.1.5,None,2024-10-10 15h21.36.360313 +0530,
186,0,186,0,317.8113591000001,,317.7693665000006,5,317.8113591000001,317.8113591000001,0.028641099999731523,319.0489560999995,[-0.325],[0.03833333333333333],[1],[0],[0],[1.251599899998837],['target'],441834,001,2024-10-10_15h21.23.977,visual_search_exp,2024.1.5,None,2024-10-10 15h21.36.360313 +0530,
187,0,187,0,319.1298963999998,,319.05452630000036,10,319.1298963999998,319.1298963999998,0.05357680000088294,320.1988720999998,[-0.265],[0.4583333333333333],[1],[0],[0],[1.09143099999892],['target'],441834,001,2024-10-10_15h21.23.977,visual_search_exp,2024.1.5,None,2024-10-10 15h21.36.360313 +0530,
188,0,188,0,320.2637047999997,,320.2046045999996,5,320.2637047999997,320.2637047999997,0.029613400000016554,321.37035470000046,[-0.475],[0.021666666666666667],[1],[0],[0],[1.136758299999201],['target'],441834,001,2024-10-10_15h21.23.977,visual_search_exp,2024.1.5,None,2024-10-10 15h21.36.360313 +0530,
189,0,189,0,321.46575949999897,,321.37607000000025,10,321.46575949999897,321.46575949999897,0.05567039999914414,323.40296019999914,[0.36],[0.49],[1],[0],[0],[1.9718646000001172],['target'],441834,001,2024-10-10_15h21.23.977,visual_search_exp,2024.1.5,None,2024-10-10 15h21.36.360313 +0530,
190,0,190,0,323.50090590000036,,323.4088302,10,323.50090590000036,323.50090590000036,0.053375299999970593,324.78886129999955,[-0.16666666666666666],[0.335],[1],[0],[0],[1.3272522000006575],['target'],441834,001,2024-10-10_15h21.23.977,visual_search_exp,2024.1.5,None,2024-10-10 15h21.36.360313 +0530,
191,0,191,0,324.8531504999992,,324.7944296000005,5,324.8531504999992,324.8531504999992,0.02994810000018333,325.8723468999997,[0.06666666666666667],[-0.21666666666666667],[1],[0],[0],[1.0485380999998597],['target'],441834,001,2024-10-10_15h21.23.977,visual_search_exp,2024.1.5,None,2024-10-10 15h21.36.360313 +0530,
192,0,192,0,325.92030499999964,,325.87804399999914,5,325.92030499999964,325.92030499999964,0.028320600000370177,327.3600258000006,[-0.4533333333333333],[-0.13],[1],[0],[0],[1.4542784000004758],['target'],441834,001,2024-10-10_15h21.23.977,visual_search_exp,2024.1.5,None,2024-10-10 15h21.36.360313 +0530,
193,0,193,0,327.42211589999897,,327.3655588999991,5,327.42211589999897,327.42211589999897,0.02861239999947429,328.8583643000002,[-0.27],[0.4716666666666667],[1],[0],[0],[1.4648209999995743],['target'],441834,001,2024-10-10_15h21.23.977,visual_search_exp,2024.1.5,None,2024-10-10 15h21.36.360313 +0530,
194,0,194,0,328.94100620000063,,328.8641972000005,10,328.94100620000063,328.94100620000063,0.053517999998803134,330.7774372999993,[0.05],[-0.15333333333333332],[1],[0],[0],[1.8603473999992275],['target'],441834,001,2024-10-10_15h21.23.977,visual_search_exp,2024.1.5,None,2024-10-10 15h21.36.360313 +0530,
195,0,195,0,330.8585590999992,,330.78306449999945,10,330.8585590999992,330.8585590999992,0.05467259999932139,332.6297025999993,[-0.5066666666666667],[-0.16],[1],[0],[0],[1.7925813000001654],['target'],441834,001,2024-10-10_15h21.23.977,visual_search_exp,2024.1.5,None,2024-10-10 15h21.36.360313 +0530,
196,0,196,0,332.6773143999999,,332.6354228,5,332.6773143999999,332.6773143999999,0.02869030000147177,334.2151912999998,[0.32],[0.013333333333333334],[1],[0],[0],[1.5516585000004852],['target'],441834,001,2024-10-10_15h21.23.977,visual_search_exp,2024.1.5,None,2024-10-10 15h21.36.360313 +0530,
197,0,197,0,334.27990429999954,,334.2208279000006,5,334.27990429999954,334.27990429999954,0.028964500001166016,335.56911500000024,[-0.13166666666666665],[0.23],[1],[0],[0],[1.3199318000006315],['target'],441834,001,2024-10-10_15h21.23.977,visual_search_exp,2024.1.5,None,2024-10-10 15h21.36.360313 +0530,
198,0,198,0,335.6304027999995,,335.57485649999944,5,335.6304027999995,335.6304027999995,0.028749999999490683,336.8675545999995,[0.2733333333333333],[0.195],[1],[0],[0],[1.2644952000009653],['target'],441834,001,2024-10-10_15h21.23.977,visual_search_exp,2024.1.5,None,2024-10-10 15h21.36.360313 +0530,
199,0,199,0,336.9330420999995,,336.8737729000004,5,336.9330420999995,336.9330420999995,0.02834190000066883,338.20176999999967,[0.405],[0.14166666666666666],[1],[0],[0],[1.3001908999995067],['target'],441834,001,2024-10-10_15h21.23.977,visual_search_exp,2024.1.5,None,2024-10-10 15h21.36.360313 +0530,
