trials.thisRepN,trials.thisTrialN,trials.thisN,trials.thisIndex,thisRow.t,notes,trial.started,num_distr,fixation.started,target.started,mouse.started,trial.stopped,mouse.x,mouse.y,mouse.leftButton,mouse.midButton,mouse.rightButton,mouse.time,mouse.clicked_name,participant,session,date,expName,psychopyVersion,frameRate,expStart,
0,0,0,0,0.08036110000102781,,0.018074499999784166,5,0.08036110000102781,0.08036110000102781,0.052537300001858966,1.2028572000017448,[0.4533333333333333],[0.23666666666666666],[1],[0],[0],[1.1491445999999996],['target'],492063,001,2024-10-10_15h34.59.354,visual_search_exp,2024.1.5,None,2024-10-10 15h35.09.444867 +0530,
1,0,1,0,1.4488315999988117,,1.210158699999738,10,1.4488315999988117,1.4488315999988117,0.21512479999728384,3.8201215000008233,[-0.0033333333333333335],[-0.37],[1],[0],[0],[2.3953531999977713],['target'],492063,001,2024-10-10_15h34.59.354,visual_search_exp,2024.1.5,None,2024-10-10 15h35.09.444867 +0530,
2,0,2,0,3.917572199999995,,3.8259870000001683,10,3.917572199999995,3.917572199999995,0.057464399997115834,6.756190399999468,[-0.5033333333333333],[-0.31833333333333336],[1],[0],[0],[2.8733362999992096],['target'],492063,001,2024-10-10_15h34.59.354,visual_search_exp,2024.1.5,None,2024-10-10 15h35.09.444867 +0530,
3,0,3,0,6.85450199999832,,6.761909699998796,10,6.85450199999832,6.85450199999832,0.05717179999919608,9.192396499998722,[-0.2816666666666667],[-0.39166666666666666],[1],[0],[0],[2.373960500000976],['target'],492063,001,2024-10-10_15h34.59.354,visual_search_exp,2024.1.5,None,2024-10-10 15h35.09.444867 +0530,
4,0,4,0,9.273548599998321,,9.198234600000433,10,9.273548599998321,9.273548599998321,0.05501939999885508,10.943911800000933,[0.07333333333333333],[-0.4],[1],[0],[0],[1.6912887999969826],['target'],492063,001,2024-10-10_15h34.59.354,visual_search_exp,2024.1.5,None,2024-10-10 15h35.09.444867 +0530,
5,0,5,0,10.991786800001137,,10.949948000001314,5,10.991786800001137,10.991786800001137,0.02855279999857885,12.578693600000406,[0.395],[0.405],[1],[0],[0],[1.6008915999991586],['target'],492063,001,2024-10-10_15h34.59.354,visual_search_exp,2024.1.5,None,2024-10-10 15h35.09.444867 +0530,
6,0,6,0,12.62688469999921,,12.584542199998396,5,12.62688469999921,12.62688469999921,0.029173200000514043,14.24710739999864,[-0.445],[-0.07666666666666666],[1],[0],[0],[1.6340314999979455],['target'],492063,001,2024-10-10_15h34.59.354,visual_search_exp,2024.1.5,None,2024-10-10 15h35.09.444867 +0530,
7,0,7,0,14.312924099998781,,14.252731399999902,5,14.312924099998781,14.312924099998781,0.03990360000170767,16.067061400000966,[-0.37333333333333335],[-0.10166666666666667],[1],[0],[0],[1.7748387999999977],['target'],492063,001,2024-10-10_15h34.59.354,visual_search_exp,2024.1.5,None,2024-10-10 15h35.09.444867 +0530,
8,0,8,0,16.164077800000086,,16.078328100000363,5,16.164077800000086,16.164077800000086,0.04994939999960479,17.135513199998968,[-0.5],[0.14666666666666667],[1],[0],[0],[1.0091924000007566],['target'],492063,001,2024-10-10_15h34.59.354,visual_search_exp,2024.1.5,None,2024-10-10 15h35.09.444867 +0530,
9,0,9,0,17.232743799999298,,17.14151530000163,10,17.232743799999298,17.232743799999298,0.055441099997551646,20.07053409999935,[-0.255],[-0.1],[1],[0],[0],[2.874276099999406],['target'],492063,001,2024-10-10_15h34.59.354,visual_search_exp,2024.1.5,None,2024-10-10 15h35.09.444867 +0530,
10,0,10,0,20.134778799998458,,20.07646549999845,5,20.134778799998458,20.134778799998458,0.02872410000054515,21.18926460000148,[-0.4816666666666667],[-0.38333333333333336],[1],[0],[0],[1.08472079999774],['target'],492063,001,2024-10-10_15h34.59.354,visual_search_exp,2024.1.5,None,2024-10-10 15h35.09.444867 +0530,
11,0,11,0,21.2704158000015,,21.19504489999963,10,21.2704158000015,21.2704158000015,0.054318700000294484,23.140714900000603,[-0.16166666666666665],[0.15166666666666667],[1],[0],[0],[1.8920381999996607],['target'],492063,001,2024-10-10_15h34.59.354,visual_search_exp,2024.1.5,None,2024-10-10 15h35.09.444867 +0530,
12,0,12,0,23.188521000000037,,23.146641600000294,5,23.188521000000037,23.188521000000037,0.02867799999876297,24.761078499999712,[-0.4033333333333333],[-0.4266666666666667],[1],[0],[0],[1.586376700000983],['target'],492063,001,2024-10-10_15h34.59.354,visual_search_exp,2024.1.5,None,2024-10-10 15h35.09.444867 +0530,
13,0,13,0,24.80706149999969,,24.76681969999845,5,24.80706149999969,24.80706149999969,0.02705749999950058,26.162065500000608,[0.5066666666666667],[0.265],[1],[0],[0],[1.3687910999979067],['target'],492063,001,2024-10-10_15h34.59.354,visual_search_exp,2024.1.5,None,2024-10-10 15h35.09.444867 +0530,
14,0,14,0,26.241723700000875,,26.16820960000041,10,26.241723700000875,26.241723700000875,0.053887900001427624,28.04711379999935,[0.34833333333333333],[-0.185],[1],[0],[0],[1.825637400001142],['target'],492063,001,2024-10-10_15h34.59.354,visual_search_exp,2024.1.5,None,2024-10-10 15h35.09.444867 +0530,
15,0,15,0,28.111648900001455,,28.05304260000048,5,28.111648900001455,28.111648900001455,0.03143689999706112,29.480792300000758,[-0.5016666666666667],[0.42333333333333334],[1],[0],[0],[1.396919999999227],['target'],492063,001,2024-10-10_15h34.59.354,visual_search_exp,2024.1.5,None,2024-10-10 15h35.09.444867 +0530,
16,0,16,0,29.562215199999628,,29.486625900000945,10,29.562215199999628,29.562215199999628,0.05383520000032149,30.999863100001676,[-0.03],[0.13166666666666665],[1],[0],[0],[1.4600715999986278],['target'],492063,001,2024-10-10_15h34.59.354,visual_search_exp,2024.1.5,None,2024-10-10 15h35.09.444867 +0530,
17,0,17,0,31.064443300001585,,31.005775400000857,5,31.064443300001585,31.064443300001585,0.029359600001043873,32.8378346999998,[0.345],[-0.4766666666666667],[1],[0],[0],[1.803362599999673],['target'],492063,001,2024-10-10_15h34.59.354,visual_search_exp,2024.1.5,None,2024-10-10 15h35.09.444867 +0530,
18,0,18,0,32.899047099999734,,32.843521099999634,5,32.899047099999734,32.899047099999734,0.027394700002332684,34.4696698000007,[-0.14833333333333334],[-0.43666666666666665],[1],[0],[0],[1.5993377000013425],['target'],492063,001,2024-10-10_15h34.59.354,visual_search_exp,2024.1.5,None,2024-10-10 15h35.09.444867 +0530,
19,0,19,0,34.568837700000586,,34.47541329999876,10,34.568837700000586,34.568837700000586,0.05678830000033486,35.63884719999987,[0.105],[0.24],[1],[0],[0],[1.1072176999987278],['target'],492063,001,2024-10-10_15h34.59.354,visual_search_exp,2024.1.5,None,2024-10-10 15h35.09.444867 +0530,
20,0,20,0,35.70216150000124,,35.64475440000024,5,35.70216150000124,35.70216150000124,0.030636900002718903,36.842112199999974,[-0.37666666666666665],[-0.08166666666666667],[1],[0],[0],[1.167237199999363],['target'],492063,001,2024-10-10_15h34.59.354,visual_search_exp,2024.1.5,None,2024-10-10 15h35.09.444867 +0530,
21,0,21,0,36.93709790000139,,36.84794909999982,10,36.93709790000139,36.93709790000139,0.05626920000213431,38.72461330000078,[-0.2783333333333333],[0.29833333333333334],[1],[0],[0],[1.8210939999989932],['target'],492063,001,2024-10-10_15h34.59.354,visual_search_exp,2024.1.5,None,2024-10-10 15h35.09.444867 +0530,
22,0,22,0,38.77222210000036,,38.73035190000155,5,38.77222210000036,38.77222210000036,0.029581800001324154,39.71045640000011,[-0.3416666666666667],[0.38333333333333336],[1],[0],[0],[0.9511772000005294],['target'],492063,001,2024-10-10_15h34.59.354,visual_search_exp,2024.1.5,None,2024-10-10 15h35.09.444867 +0530,
23,0,23,0,39.80746379999982,,39.71609549999994,10,39.80746379999982,39.80746379999982,0.05490780000036466,41.07790269999896,[0.07666666666666666],[0.095],[1],[0],[0],[1.3075629999984812],['target'],492063,001,2024-10-10_15h34.59.354,visual_search_exp,2024.1.5,None,2024-10-10 15h35.09.444867 +0530,
24,0,24,0,41.158469300000434,,41.083616100000654,10,41.158469300000434,41.158469300000434,0.055075500000384636,42.02865069999825,[-0.14166666666666666],[0.105],[1],[0],[0],[0.8905505000002449],['target'],492063,001,2024-10-10_15h34.59.354,visual_search_exp,2024.1.5,None,2024-10-10 15h35.09.444867 +0530,
25,0,25,0,42.0933143000002,,42.03427129999909,5,42.0933143000002,42.0933143000002,0.028740100002323743,42.86397289999877,[0.085],[0.13],[1],[0],[0],[0.8015534999976808],['target'],492063,001,2024-10-10_15h34.59.354,visual_search_exp,2024.1.5,None,2024-10-10 15h35.09.444867 +0530,
26,0,26,0,42.92688160000034,,42.869708099999116,5,42.92688160000034,42.92688160000034,0.027842500003316673,44.16629449999891,[0.2683333333333333],[-0.235],[1],[0],[0],[1.2693827000002784],['target'],492063,001,2024-10-10_15h34.59.354,visual_search_exp,2024.1.5,None,2024-10-10 15h35.09.444867 +0530,
27,0,27,0,44.2291910999993,,44.17225429999962,5,44.2291910999993,44.2291910999993,0.02937499999825377,45.300400700001774,[-0.20333333333333334],[-0.04833333333333333],[1],[0],[0],[1.0995045000017853],['target'],492063,001,2024-10-10_15h34.59.354,visual_search_exp,2024.1.5,None,2024-10-10 15h35.09.444867 +0530,
28,0,28,0,45.379576800001814,,45.306111099998816,10,45.379576800001814,45.379576800001814,0.05283399999825633,46.58357949999845,[0.24166666666666667],[-0.39666666666666667],[1],[0],[0],[1.225313400002051],['target'],492063,001,2024-10-10_15h34.59.354,visual_search_exp,2024.1.5,None,2024-10-10 15h35.09.444867 +0530,
29,0,29,0,46.68224639999971,,46.58943590000126,10,46.68224639999971,46.68224639999971,0.05447959999946761,49.653821299998526,[-0.27166666666666667],[0.4266666666666667],[1],[0],[0],[3.0106215000014345],['target'],492063,001,2024-10-10_15h34.59.354,visual_search_exp,2024.1.5,None,2024-10-10 15h35.09.444867 +0530,
30,0,30,0,49.71773100000064,,49.65978790000008,5,49.71773100000064,49.71773100000064,0.029966200003400445,50.73937020000085,[-0.45166666666666666],[-0.09],[1],[0],[0],[1.0502426000020932],['target'],492063,001,2024-10-10_15h34.59.354,visual_search_exp,2024.1.5,None,2024-10-10 15h35.09.444867 +0530,
31,0,31,0,50.80303350000031,,50.74506420000034,5,50.80303350000031,50.80303350000031,0.028611599998839665,51.72247160000188,[-0.48],[0.175],[1],[0],[0],[0.9494799000021885],['target'],492063,001,2024-10-10_15h34.59.354,visual_search_exp,2024.1.5,None,2024-10-10 15h35.09.444867 +0530,
32,0,32,0,51.82026480000059,,51.728413900000305,10,51.82026480000059,51.82026480000059,0.056933799998660106,56.92808700000023,[0.09166666666666666],[0.44666666666666666],[1],[0],[0],[5.143360700003541],['target'],492063,001,2024-10-10_15h34.59.354,visual_search_exp,2024.1.5,None,2024-10-10 15h35.09.444867 +0530,
33,0,33,0,56.993047600000864,,56.933923000000505,5,56.993047600000864,56.993047600000864,0.029099600000336068,59.98308159999942,[0.44],[-0.4716666666666667],[1],[0],[0],[3.020694700000604],['target'],492063,001,2024-10-10_15h34.59.354,visual_search_exp,2024.1.5,None,2024-10-10 15h35.09.444867 +0530,
34,0,34,0,60.07899919999909,,59.98871750000035,10,60.07899919999909,60.07899919999909,0.053590300001815194,64.55261260000043,[-0.305],[0.46],[1],[0],[0],[4.510893700000452],['target'],492063,001,2024-10-10_15h34.59.354,visual_search_exp,2024.1.5,None,2024-10-10 15h35.09.444867 +0530,
35,0,35,0,64.60052329999962,,64.5586011000014,5,64.60052329999962,64.60052329999962,0.029090299998642877,66.34016619999966,[-0.09666666666666666],[0.26666666666666666],[1],[0],[0],[1.7532300999992003],['target'],492063,001,2024-10-10_15h34.59.354,visual_search_exp,2024.1.5,None,2024-10-10 15h35.09.444867 +0530,
36,0,36,0,66.41997619999893,,66.3459299999995,10,66.41997619999893,66.41997619999893,0.053599599999870406,67.6227031999988,[0.3233333333333333],[0.2833333333333333],[1],[0],[0],[1.2238044000005175],['target'],492063,001,2024-10-10_15h34.59.354,visual_search_exp,2024.1.5,None,2024-10-10 15h35.09.444867 +0530,
37,0,37,0,67.70380690000093,,67.6286426000006,10,67.70380690000093,67.70380690000093,0.05528009999761707,69.27535169999828,[0.12166666666666667],[0.0],[1],[0],[0],[1.5920963999997184],['target'],492063,001,2024-10-10_15h34.59.354,visual_search_exp,2024.1.5,None,2024-10-10 15h35.09.444867 +0530,
38,0,38,0,69.3398159999997,,69.2812128000005,5,69.3398159999997,69.3398159999997,0.029991100000188453,70.6455438999983,[0.4483333333333333],[0.08166666666666667],[1],[0],[0],[1.334953300000052],['target'],492063,001,2024-10-10_15h34.59.354,visual_search_exp,2024.1.5,None,2024-10-10 15h35.09.444867 +0530,
39,0,39,0,70.72390760000053,,70.65139569999883,10,70.72390760000053,70.72390760000053,0.053159200000663986,73.29590660000031,[-0.43666666666666665],[-0.42],[1],[0],[0],[2.5920411000006425],['target'],492063,001,2024-10-10_15h34.59.354,visual_search_exp,2024.1.5,None,2024-10-10 15h35.09.444867 +0530,
40,0,40,0,73.36050550000073,,73.30168029999913,5,73.36050550000073,73.36050550000073,0.028609600001800572,74.7329333000016,[-0.37166666666666665],[0.41],[1],[0],[0],[1.4032729999998992],['target'],492063,001,2024-10-10_15h34.59.354,visual_search_exp,2024.1.5,None,2024-10-10 15h35.09.444867 +0530,
41,0,41,0,74.8118942000001,,74.73863300000085,10,74.8118942000001,74.8118942000001,0.05109529999754159,75.98166270000002,[-0.06333333333333334],[0.14666666666666667],[1],[0],[0],[1.1925044000017806],['target'],492063,001,2024-10-10_15h34.59.354,visual_search_exp,2024.1.5,None,2024-10-10 15h35.09.444867 +0530,
42,0,42,0,76.04743009999947,,75.9875334999997,5,76.04743009999947,76.04743009999947,0.029407900001388043,76.93522769999981,[-0.17833333333333334],[0.14666666666666667],[1],[0],[0],[0.9189415000000736],['target'],492063,001,2024-10-10_15h34.59.354,visual_search_exp,2024.1.5,None,2024-10-10 15h35.09.444867 +0530,
43,0,43,0,76.99752520000038,,76.94090829999914,5,76.99752520000038,76.99752520000038,0.02758170000015525,77.83516750000126,[-0.375],[0.0016666666666666668],[1],[0],[0],[0.867273900003056],['target'],492063,001,2024-10-10_15h34.59.354,visual_search_exp,2024.1.5,None,2024-10-10 15h35.09.444867 +0530,
44,0,44,0,77.9326499000017,,77.84098380000069,10,77.9326499000017,77.9326499000017,0.055600600000616396,79.20232730000134,[0.39166666666666666],[0.2633333333333333],[1],[0],[0],[1.306421400000545],['target'],492063,001,2024-10-10_15h34.59.354,visual_search_exp,2024.1.5,None,2024-10-10 15h35.09.444867 +0530,
45,0,45,0,79.2834045999989,,79.20812139999907,10,79.2834045999989,79.2834045999989,0.05390819999956875,80.98898510000072,[0.25],[0.11666666666666667],[1],[0],[0],[1.7275546999990183],['target'],492063,001,2024-10-10_15h34.59.354,visual_search_exp,2024.1.5,None,2024-10-10 15h35.09.444867 +0530,
46,0,46,0,81.05247149999923,,80.99482070000158,5,81.05247149999923,81.05247149999923,0.02901479999854928,82.12481670000125,[0.09333333333333334],[0.19],[1],[0],[0],[1.1016254999994999],['target'],492063,001,2024-10-10_15h34.59.354,visual_search_exp,2024.1.5,None,2024-10-10 15h35.09.444867 +0530,
47,0,47,0,82.18694569999934,,82.13032720000047,5,82.18694569999934,82.18694569999934,0.029175400002714014,84.2258365000016,[-0.335],[-0.17666666666666667],[1],[0],[0],[2.0669005999989167],['target'],492063,001,2024-10-10_15h34.59.354,visual_search_exp,2024.1.5,None,2024-10-10 15h35.09.444867 +0530,
48,0,48,0,84.32271210000181,,84.23167639999883,10,84.32271210000181,84.32271210000181,0.054490799997438444,85.52634970000145,[0.17333333333333334],[0.08166666666666667],[1],[0],[0],[1.2408462000021245],['target'],492063,001,2024-10-10_15h34.59.354,visual_search_exp,2024.1.5,None,2024-10-10 15h35.09.444867 +0530,
49,0,49,0,85.58978059999936,,85.53206770000179,5,85.58978059999936,85.58978059999936,0.0286898000013025,87.27959900000133,[-0.15],[-0.3233333333333333],[1],[0],[0],[1.7194376999977976],['target'],492063,001,2024-10-10_15h34.59.354,visual_search_exp,2024.1.5,None,2024-10-10 15h35.09.444867 +0530,
50,0,50,0,87.35966660000122,,87.28523169999971,10,87.35966660000122,87.35966660000122,0.05385540000133915,89.56363920000149,[-0.18],[-0.47],[1],[0],[0],[2.2252058000012767],['target'],492063,001,2024-10-10_15h34.59.354,visual_search_exp,2024.1.5,None,2024-10-10 15h35.09.444867 +0530,
51,0,51,0,89.66123629999856,,89.56949860000168,10,89.66123629999856,89.66123629999856,0.056718700001511024,91.19895689999976,[0.2833333333333333],[0.27666666666666667],[1],[0],[0],[1.5733507000004465],['target'],492063,001,2024-10-10_15h34.59.354,visual_search_exp,2024.1.5,None,2024-10-10 15h35.09.444867 +0530,
52,0,52,0,91.29738559999896,,91.20478649999859,10,91.29738559999896,91.29738559999896,0.05531150000024354,93.40168679999988,[-0.4683333333333333],[-0.47],[1],[0],[0],[2.142309499999101],['target'],492063,001,2024-10-10_15h34.59.354,visual_search_exp,2024.1.5,None,2024-10-10 15h35.09.444867 +0530,
53,0,53,0,93.46552829999928,,93.40762739999991,5,93.46552829999928,93.46552829999928,0.030165499996655853,94.670552399999,[0.25333333333333335],[0.3983333333333333],[1],[0],[0],[1.233459800001583],['target'],492063,001,2024-10-10_15h34.59.354,visual_search_exp,2024.1.5,None,2024-10-10 15h35.09.444867 +0530,
54,0,54,0,94.75099820000105,,94.67633500000011,10,94.75099820000105,94.75099820000105,0.054736900001444155,98.55776809999952,[-0.43],[-0.4483333333333333],[1],[0],[0],[3.8271988999986206],['target'],492063,001,2024-10-10_15h34.59.354,visual_search_exp,2024.1.5,None,2024-10-10 15h35.09.444867 +0530,
55,0,55,0,98.6212259999993,,98.56358430000182,5,98.6212259999993,98.6212259999993,0.02938960000028601,99.94208580000122,[-0.335],[0.435],[1],[0],[0],[1.3496687000006204],['target'],492063,001,2024-10-10_15h34.59.354,visual_search_exp,2024.1.5,None,2024-10-10 15h35.09.444867 +0530,
56,0,56,0,100.023277100001,,99.94791930000065,10,100.023277100001,100.023277100001,0.05322620000151801,101.81000520000089,[-0.2916666666666667],[-0.17833333333333334],[1],[0],[0],[1.8095195999994758],['target'],492063,001,2024-10-10_15h34.59.354,visual_search_exp,2024.1.5,None,2024-10-10 15h35.09.444867 +0530,
57,0,57,0,101.8747723000015,,101.81589940000049,5,101.8747723000015,101.8747723000015,0.02984949999881792,103.01383980000173,[-0.19333333333333333],[-0.14333333333333334],[1],[0],[0],[1.1687314999981027],['target'],492063,001,2024-10-10_15h34.59.354,visual_search_exp,2024.1.5,None,2024-10-10 15h35.09.444867 +0530,
58,0,58,0,103.09338940000089,,103.01953389999835,10,103.09338940000089,103.09338940000089,0.0537847999985388,104.76381849999962,[0.31166666666666665],[-0.44666666666666666],[1],[0],[0],[1.6910819000004267],['target'],492063,001,2024-10-10_15h34.59.354,visual_search_exp,2024.1.5,None,2024-10-10 15h35.09.444867 +0530,
59,0,59,0,104.86131949999981,,104.76972880000176,10,104.86131949999981,104.86131949999981,0.05595240000184276,106.63264980000167,[0.23833333333333334],[-0.025],[1],[0],[0],[1.8076849999997648],['target'],492063,001,2024-10-10_15h34.59.354,visual_search_exp,2024.1.5,None,2024-10-10 15h35.09.444867 +0530,
60,0,60,0,106.68001949999962,,106.63843679999991,5,106.68001949999962,106.68001949999962,0.028374600002280204,108.05058009999993,[0.12],[0.37833333333333335],[1],[0],[0],[1.3843975000017963],['target'],492063,001,2024-10-10_15h34.59.354,visual_search_exp,2024.1.5,None,2024-10-10 15h35.09.444867 +0530,
61,0,61,0,108.1325367999998,,108.05619450000086,10,108.1325367999998,108.1325367999998,0.05641780000223662,109.1685890000008,[-0.07666666666666666],[0.21],[1],[0],[0],[1.0565960999992967],['target'],492063,001,2024-10-10_15h34.59.354,visual_search_exp,2024.1.5,None,2024-10-10 15h35.09.444867 +0530,
62,0,62,0,109.23308049999832,,109.17456949999905,5,109.23308049999832,109.23308049999832,0.02924410000196076,110.57130680000046,[-0.26666666666666666],[-0.38166666666666665],[1],[0],[0],[1.3676047000008111],['target'],492063,001,2024-10-10_15h34.59.354,visual_search_exp,2024.1.5,None,2024-10-10 15h35.09.444867 +0530,
63,0,63,0,110.66780189999918,,110.58511310000176,10,110.66780189999918,110.66780189999918,0.05770190000112052,111.68776219999927,[0.02666666666666667],[0.3983333333333333],[1],[0],[0],[1.046951900003478],['target'],492063,001,2024-10-10_15h34.59.354,visual_search_exp,2024.1.5,None,2024-10-10 15h35.09.444867 +0530,
64,0,64,0,111.78549890000068,,111.69369440000082,10,111.78549890000068,111.78549890000068,0.0574767999969481,112.94000020000021,[-0.15333333333333332],[0.42833333333333334],[1],[0],[0],[1.189519499999733],['target'],492063,001,2024-10-10_15h34.59.354,visual_search_exp,2024.1.5,None,2024-10-10 15h35.09.444867 +0530,
65,0,65,0,113.00478450000082,,112.94577819999904,5,113.00478450000082,113.00478450000082,0.029785200000333134,115.07503500000166,[0.435],[-0.4066666666666667],[1],[0],[0],[2.1000997999981337],['target'],492063,001,2024-10-10_15h34.59.354,visual_search_exp,2024.1.5,None,2024-10-10 15h35.09.444867 +0530,
66,0,66,0,115.17263269999967,,115.08083550000083,10,115.17263269999967,115.17263269999967,0.06351720000020578,116.37689909999972,[-0.4],[0.28833333333333333],[1],[0],[0],[1.2332827000027464],['target'],492063,001,2024-10-10_15h34.59.354,visual_search_exp,2024.1.5,None,2024-10-10 15h35.09.444867 +0530,
67,0,67,0,116.45920430000115,,116.38273090000075,10,116.45920430000115,116.45920430000115,0.0556261000019731,118.01162850000037,[0.505],[-0.14333333333333334],[1],[0],[0],[1.5738760999993247],['target'],492063,001,2024-10-10_15h34.59.354,visual_search_exp,2024.1.5,None,2024-10-10 15h35.09.444867 +0530,
68,0,68,0,118.09245169999849,,118.01745129999836,10,118.09245169999849,118.09245169999849,0.054168400001799455,119.39684689999922,[-0.09333333333333334],[0.023333333333333334],[1],[0],[0],[1.3259277999968617],['target'],492063,001,2024-10-10_15h34.59.354,visual_search_exp,2024.1.5,None,2024-10-10 15h35.09.444867 +0530,
69,0,69,0,119.44391479999831,,119.40277350000179,5,119.44391479999831,119.44391479999831,0.028111499999795342,120.84762549999868,[0.006666666666666667],[-0.46],[1],[0],[0],[1.4173856999987038],['target'],492063,001,2024-10-10_15h34.59.354,visual_search_exp,2024.1.5,None,2024-10-10 15h35.09.444867 +0530,
70,0,70,0,120.92968979999932,,120.85340609999912,10,120.92968979999932,120.92968979999932,0.05562400000053458,122.9664989999983,[0.056666666666666664],[-0.07],[1],[0],[0],[2.0580972000025213],['target'],492063,001,2024-10-10_15h34.59.354,visual_search_exp,2024.1.5,None,2024-10-10 15h35.09.444867 +0530,
71,0,71,0,123.01448719999826,,122.97236949999933,5,123.01448719999826,123.01448719999826,0.0288663000028464,123.86923519999982,[-0.07],[-0.03833333333333333],[1],[0],[0],[0.8686496999980591],['target'],492063,001,2024-10-10_15h34.59.354,visual_search_exp,2024.1.5,None,2024-10-10 15h35.09.444867 +0530,
72,0,72,0,123.9319925000018,,123.87497010000152,5,123.9319925000018,123.9319925000018,0.029555500001151813,125.40415639999992,[-0.3516666666666667],[-0.41833333333333333],[1],[0],[0],[1.5003758999991987],['target'],492063,001,2024-10-10_15h34.59.354,visual_search_exp,2024.1.5,None,2024-10-10 15h35.09.444867 +0530,
73,0,73,0,125.4844187000017,,125.41000970000096,10,125.4844187000017,125.4844187000017,0.05487379999976838,126.68743739999991,[-0.43666666666666665],[0.345],[1],[0],[0],[1.2232002999990073],['target'],492063,001,2024-10-10_15h34.59.354,visual_search_exp,2024.1.5,None,2024-10-10 15h35.09.444867 +0530,
74,0,74,0,126.78525140000056,,126.69317090000186,10,126.78525140000056,126.78525140000056,0.056147800001781434,128.2561491000015,[0.31166666666666665],[0.12166666666666667],[1],[0],[0],[1.5075013999994553],['target'],492063,001,2024-10-10_15h34.59.354,visual_search_exp,2024.1.5,None,2024-10-10 15h35.09.444867 +0530,
75,0,75,0,128.32097250000152,,128.26208229999975,5,128.32097250000152,128.32097250000152,0.02979350000168779,129.60763009999937,[-0.4666666666666667],[0.015],[1],[0],[0],[1.3164250000008906],['target'],492063,001,2024-10-10_15h34.59.354,visual_search_exp,2024.1.5,None,2024-10-10 15h35.09.444867 +0530,
76,0,76,0,129.6886114000008,,129.61324830000012,10,129.6886114000008,129.6886114000008,0.05520769999930053,131.09186639999825,[0.16],[-0.09166666666666666],[1],[0],[0],[1.4240443000016967],['target'],492063,001,2024-10-10_15h34.59.354,visual_search_exp,2024.1.5,None,2024-10-10 15h35.09.444867 +0530,
77,0,77,0,131.19075099999827,,131.09759380000105,10,131.19075099999827,131.19075099999827,0.05607449999661185,132.82810719999907,[-0.44],[-0.26],[1],[0],[0],[1.6751382000002195],['target'],492063,001,2024-10-10_15h34.59.354,visual_search_exp,2024.1.5,None,2024-10-10 15h35.09.444867 +0530,
78,0,78,0,132.9086056999986,,132.83412189999945,10,132.9086056999986,132.9086056999986,0.054386499999964144,134.27975359999982,[0.2683333333333333],[0.041666666666666664],[1],[0],[0],[1.3918898999982048],['target'],492063,001,2024-10-10_15h34.59.354,visual_search_exp,2024.1.5,None,2024-10-10 15h35.09.444867 +0530,
79,0,79,0,134.37819799999852,,134.28572340000028,10,134.37819799999852,134.37819799999852,0.056559299999207724,135.41416369999934,[0.46166666666666667],[0.03],[1],[0],[0],[1.0725595999974757],['target'],492063,001,2024-10-10_15h34.59.354,visual_search_exp,2024.1.5,None,2024-10-10 15h35.09.444867 +0530,
80,0,80,0,135.46159540000008,,135.42004530000122,5,135.46159540000008,135.46159540000008,0.028266000001167413,136.63327059999938,[-0.021666666666666667],[0.38666666666666666],[1],[0],[0],[1.1856434000001173],['target'],492063,001,2024-10-10_15h34.59.354,visual_search_exp,2024.1.5,None,2024-10-10 15h35.09.444867 +0530,
81,0,81,0,136.72962069999994,,136.63914419999855,10,136.72962069999994,136.72962069999994,0.057052200001635356,137.79944049999904,[-0.445],[0.24],[1],[0],[0],[1.1039104000010411],['target'],492063,001,2024-10-10_15h34.59.354,visual_search_exp,2024.1.5,None,2024-10-10 15h35.09.444867 +0530,
82,0,82,0,137.86497009999948,,137.80513150000115,5,137.86497009999948,137.86497009999948,0.029201899997133296,139.28520740000022,[0.17333333333333334],[-0.24666666666666667],[1],[0],[0],[1.4514288999998826],['target'],492063,001,2024-10-10_15h34.59.354,visual_search_exp,2024.1.5,None,2024-10-10 15h35.09.444867 +0530,
83,0,83,0,139.3825735999999,,139.29281550000087,10,139.3825735999999,139.3825735999999,0.054708200001186924,140.6197319999992,[0.42833333333333334],[0.3383333333333333],[1],[0],[0],[1.2731366000007256],['target'],492063,001,2024-10-10_15h34.59.354,visual_search_exp,2024.1.5,None,2024-10-10 15h35.09.444867 +0530,
84,0,84,0,140.7181798999991,,140.62561170000117,10,140.7181798999991,140.7181798999991,0.056784299998980714,142.72295170000143,[-0.18666666666666668],[0.23333333333333334],[1],[0],[0],[2.041158700001688],['target'],492063,001,2024-10-10_15h34.59.354,visual_search_exp,2024.1.5,None,2024-10-10 15h35.09.444867 +0530,
85,0,85,0,142.80287600000156,,142.72877169999992,10,142.80287600000156,142.80287600000156,0.054248399999778485,144.74004219999915,[0.275],[0.008333333333333333],[1],[0],[0],[1.9576677000004565],['target'],492063,001,2024-10-10_15h34.59.354,visual_search_exp,2024.1.5,None,2024-10-10 15h35.09.444867 +0530,
86,0,86,0,144.82303429999956,,144.74577940000017,10,144.82303429999956,144.82303429999956,0.05335250000280212,147.16062339999917,[0.12],[-0.26166666666666666],[1],[0],[0],[2.362068900001759],['target'],492063,001,2024-10-10_15h34.59.354,visual_search_exp,2024.1.5,None,2024-10-10 15h35.09.444867 +0530,
87,0,87,0,147.2240668000013,,147.16662260000157,5,147.2240668000013,147.2240668000013,0.02891020000242861,148.27818320000006,[0.058333333333333334],[-0.415],[1],[0],[0],[1.0831270999988192],['target'],492063,001,2024-10-10_15h34.59.354,visual_search_exp,2024.1.5,None,2024-10-10 15h35.09.444867 +0530,
88,0,88,0,148.34289559999888,,148.28380000000107,5,148.34289559999888,148.34289559999888,0.03066920000128448,149.38039310000022,[0.24],[0.135],[1],[0],[0],[1.0665190999970946],['target'],492063,001,2024-10-10_15h34.59.354,visual_search_exp,2024.1.5,None,2024-10-10 15h35.09.444867 +0530,
89,0,89,0,149.4434982999992,,149.38621879999846,5,149.4434982999992,149.4434982999992,0.031070499997440493,150.44903980000163,[0.33166666666666667],[-0.33],[1],[0],[0],[1.0324273000005633],['target'],492063,001,2024-10-10_15h34.59.354,visual_search_exp,2024.1.5,None,2024-10-10 15h35.09.444867 +0530,
90,0,90,0,150.51179150000098,,150.45499230000132,5,150.51179150000098,150.51179150000098,0.02980770000067423,151.63456020000012,[0.08],[0.21166666666666667],[1],[0],[0],[1.1504755999994813],['target'],492063,001,2024-10-10_15h34.59.354,visual_search_exp,2024.1.5,None,2024-10-10 15h35.09.444867 +0530,
91,0,91,0,151.69606320000094,,151.64029149999988,5,151.69606320000094,151.69606320000094,0.02940610000223387,152.96820989999833,[0.16],[-0.44166666666666665],[1],[0],[0],[1.2991633999990881],['target'],492063,001,2024-10-10_15h34.59.354,visual_search_exp,2024.1.5,None,2024-10-10 15h35.09.444867 +0530,
92,0,92,0,153.06455070000084,,152.97391440000138,10,153.06455070000084,153.06455070000084,0.05549809999865829,154.2177601000003,[-0.4633333333333333],[0.23833333333333334],[1],[0],[0],[1.1889588000012736],['target'],492063,001,2024-10-10_15h34.59.354,visual_search_exp,2024.1.5,None,2024-10-10 15h35.09.444867 +0530,
93,0,93,0,154.3154949000018,,154.2234798999998,10,154.3154949000018,154.3154949000018,0.05542990000321879,155.81942889999846,[-0.16666666666666666],[-0.16333333333333333],[1],[0],[0],[1.541173900001013],['target'],492063,001,2024-10-10_15h34.59.354,visual_search_exp,2024.1.5,None,2024-10-10 15h35.09.444867 +0530,
94,0,94,0,155.9013898000012,,155.8253282000005,10,155.9013898000012,155.9013898000012,0.05574689999775728,158.90651889999936,[-0.37333333333333335],[0.1],[1],[0],[0],[3.026137699998799],['target'],492063,001,2024-10-10_15h34.59.354,visual_search_exp,2024.1.5,None,2024-10-10 15h35.09.444867 +0530,
95,0,95,0,158.95368940000117,,158.91234859999895,5,158.95368940000117,158.95368940000117,0.02839250000033644,161.0920092999986,[0.27],[-0.48],[1],[0],[0],[2.1519507999983034],['target'],492063,001,2024-10-10_15h34.59.354,visual_search_exp,2024.1.5,None,2024-10-10 15h35.09.444867 +0530,
96,0,96,0,161.19233059999897,,161.09782529999939,10,161.19233059999897,161.19233059999897,0.05645790000198758,163.16052090000085,[-0.22666666666666666],[-0.39666666666666667],[1],[0],[0],[2.006923299999471],['target'],492063,001,2024-10-10_15h34.59.354,visual_search_exp,2024.1.5,None,2024-10-10 15h35.09.444867 +0530,
97,0,97,0,163.24237670000002,,163.1664277000018,10,163.24237670000002,163.24237670000002,0.05553230000077747,164.4456977000009,[-0.445],[0.3333333333333333],[1],[0],[0],[1.2244215999999142],['target'],492063,001,2024-10-10_15h34.59.354,visual_search_exp,2024.1.5,None,2024-10-10 15h35.09.444867 +0530,
98,0,98,0,164.54308010000022,,164.4517358000012,10,164.54308010000022,164.54308010000022,0.05577659999835305,165.5805423999991,[-0.09333333333333334],[0.43],[1],[0],[0],[1.0738367999983893],['target'],492063,001,2024-10-10_15h34.59.354,visual_search_exp,2024.1.5,None,2024-10-10 15h35.09.444867 +0530,
99,0,99,0,165.6278972,,165.58638490000158,5,165.6278972,165.6278972,0.028677300000708783,167.15099850000115,[-0.39166666666666666],[-0.4683333333333333],[1],[0],[0],[1.5365955000015674],['target'],492063,001,2024-10-10_15h34.59.354,visual_search_exp,2024.1.5,None,2024-10-10 15h35.09.444867 +0530,
100,0,100,0,167.21359600000142,,167.15684049999982,5,167.21359600000142,167.21359600000142,0.028058100000635022,168.36656869999933,[0.03333333333333333],[0.3383333333333333],[1],[0],[0],[1.1823221999984526],['target'],492063,001,2024-10-10_15h34.59.354,visual_search_exp,2024.1.5,None,2024-10-10 15h35.09.444867 +0530,
101,0,101,0,168.430881100001,,168.3723257999991,5,168.430881100001,168.430881100001,0.029373699999268865,169.6030142999989,[0.23166666666666666],[0.42],[1],[0],[0],[1.2019724999991013],['target'],492063,001,2024-10-10_15h34.59.354,visual_search_exp,2024.1.5,None,2024-10-10 15h35.09.444867 +0530,
102,0,102,0,169.66623289999916,,169.60867270000017,5,169.66623289999916,169.66623289999916,0.028988600002776366,171.5867943000012,[-0.34],[-0.11166666666666666],[1],[0],[0],[1.9497224999977334],['target'],492063,001,2024-10-10_15h34.59.354,visual_search_exp,2024.1.5,None,2024-10-10 15h35.09.444867 +0530,
103,0,103,0,171.65156399999978,,171.59282399999938,5,171.65156399999978,171.65156399999978,0.02823089999947115,172.73758109999835,[-0.11],[-0.37166666666666665],[1],[0],[0],[1.1171226000005845],['target'],492063,001,2024-10-10_15h34.59.354,visual_search_exp,2024.1.5,None,2024-10-10 15h35.09.444867 +0530,
104,0,104,0,172.8365980000017,,172.74333860000115,10,172.8365980000017,172.8365980000017,0.06946769999922253,175.17382200000065,[0.3616666666666667],[-0.008333333333333333],[1],[0],[0],[2.3616201000004367],['target'],492063,001,2024-10-10_15h34.59.354,visual_search_exp,2024.1.5,None,2024-10-10 15h35.09.444867 +0530,
105,0,105,0,175.23849609999888,,175.17977610000162,5,175.23849609999888,175.23849609999888,0.028938899999047862,176.8288274000006,[-0.08833333333333333],[-0.056666666666666664],[1],[0],[0],[1.6207500000018626],['target'],492063,001,2024-10-10_15h34.59.354,visual_search_exp,2024.1.5,None,2024-10-10 15h35.09.444867 +0530,
106,0,106,0,176.89126709999982,,176.8344978999994,5,176.89126709999982,176.89126709999982,0.028781699998944532,178.59527929999967,[-0.4116666666666667],[-0.23],[1],[0],[0],[1.7326241999980994],['target'],492063,001,2024-10-10_15h34.59.354,visual_search_exp,2024.1.5,None,2024-10-10 15h35.09.444867 +0530,
107,0,107,0,178.64186619999964,,178.60105860000112,5,178.64186619999964,178.64186619999964,0.028498399999079993,180.23424800000066,[-0.03166666666666667],[0.018333333333333333],[1],[0],[0],[1.6048713000018324],['target'],492063,001,2024-10-10_15h34.59.354,visual_search_exp,2024.1.5,None,2024-10-10 15h35.09.444867 +0530,
108,0,108,0,180.3105328999991,,180.245836099999,5,180.3105328999991,180.3105328999991,0.04193039999881876,181.44954599999983,[0.48333333333333334],[0.34833333333333333],[1],[0],[0],[1.1637279000024137],['target'],492063,001,2024-10-10_15h34.59.354,visual_search_exp,2024.1.5,None,2024-10-10 15h35.09.444867 +0530,
109,0,109,0,181.52909139999974,,181.4554051999985,10,181.52909139999974,181.52909139999974,0.0536431000000448,182.26532360000056,[0.465],[0.19666666666666666],[1],[0],[0],[0.7566822999979195],['target'],492063,001,2024-10-10_15h34.59.354,visual_search_exp,2024.1.5,None,2024-10-10 15h35.09.444867 +0530,
110,0,110,0,182.32988839999962,,182.2711820000004,5,182.32988839999962,182.32988839999962,0.029712999999901513,183.5191612000017,[-0.17],[0.035],[1],[0],[0],[1.2189461000016308],['target'],492063,001,2024-10-10_15h34.59.354,visual_search_exp,2024.1.5,None,2024-10-10 15h35.09.444867 +0530,
111,0,111,0,183.58161169999948,,183.52498539999942,5,183.58161169999948,183.58161169999948,0.02865380000002915,184.96919669999988,[0.07666666666666666],[0.018333333333333333],[1],[0],[0],[1.4162112999983947],['target'],492063,001,2024-10-10_15h34.59.354,visual_search_exp,2024.1.5,None,2024-10-10 15h35.09.444867 +0530,
112,0,112,0,185.04892159999872,,184.9749875999987,10,185.04892159999872,185.04892159999872,0.0552953999977035,186.2197187999991,[-0.165],[-0.2733333333333333],[1],[0],[0],[1.1900098000005528],['target'],492063,001,2024-10-10_15h34.59.354,visual_search_exp,2024.1.5,None,2024-10-10 15h35.09.444867 +0530,
113,0,113,0,186.26709200000187,,186.2254533000014,5,186.26709200000187,186.26709200000187,0.029341300003579818,188.9251273000009,[-0.495],[0.4483333333333333],[1],[0],[0],[2.6709698000013304],['target'],492063,001,2024-10-10_15h34.59.354,visual_search_exp,2024.1.5,None,2024-10-10 15h35.09.444867 +0530,
114,0,114,0,189.0207154000018,,188.93089780000082,10,189.0207154000018,189.0207154000018,0.05613049999737996,190.75736139999935,[-0.3233333333333333],[-0.2633333333333333],[1],[0],[0],[1.770972599999368],['target'],492063,001,2024-10-10_15h34.59.354,visual_search_exp,2024.1.5,None,2024-10-10 15h35.09.444867 +0530,
115,0,115,0,190.82217220000166,,190.7631493000008,5,190.82217220000166,190.82217220000166,0.029325300001801224,192.40948800000115,[-0.35],[0.37],[1],[0],[0],[1.6176869000009901],['target'],492063,001,2024-10-10_15h34.59.354,visual_search_exp,2024.1.5,None,2024-10-10 15h35.09.444867 +0530,
116,0,116,0,192.50747910000064,,192.41530129999956,10,192.50747910000064,192.50747910000064,0.05558559999917634,193.91074030000163,[-0.05333333333333334],[0.30666666666666664],[1],[0],[0],[1.4404607999967993],['target'],492063,001,2024-10-10_15h34.59.354,visual_search_exp,2024.1.5,None,2024-10-10 15h35.09.444867 +0530,
117,0,117,0,194.00905720000083,,193.91664759999912,10,194.00905720000083,194.00905720000083,0.05577829999674577,195.24612120000165,[0.3933333333333333],[0.44166666666666665],[1],[0],[0],[1.2743167000007816],['target'],492063,001,2024-10-10_15h34.59.354,visual_search_exp,2024.1.5,None,2024-10-10 15h35.09.444867 +0530,
118,0,118,0,195.31150409999827,,195.25199449999855,5,195.31150409999827,195.31150409999827,0.029878500001359498,197.04697859999942,[-0.06166666666666667],[-0.38333333333333336],[1],[0],[0],[1.7657265000016196],['target'],492063,001,2024-10-10_15h34.59.354,visual_search_exp,2024.1.5,None,2024-10-10 15h35.09.444867 +0530,
119,0,119,0,197.12895579999895,,197.0528075000002,10,197.12895579999895,197.12895579999895,0.05403840000144555,198.6665909000003,[0.4633333333333333],[0.18333333333333332],[1],[0],[0],[1.5603967000024568],['target'],492063,001,2024-10-10_15h34.59.354,visual_search_exp,2024.1.5,None,2024-10-10 15h35.09.444867 +0530,
120,0,120,0,198.76492950000102,,198.67237340000065,10,198.76492950000102,198.76492950000102,0.054649800000333926,200.16850509999858,[0.245],[-0.43666666666666665],[1],[0],[0],[1.4420840999991924],['target'],492063,001,2024-10-10_15h34.59.354,visual_search_exp,2024.1.5,None,2024-10-10 15h35.09.444867 +0530,
121,0,121,0,200.21565980000014,,200.17424409999876,5,200.21565980000014,200.21565980000014,0.02898339999956079,201.92209279999952,[-0.13],[0.44333333333333336],[1],[0],[0],[1.7193989000006695],['target'],492063,001,2024-10-10_15h34.59.354,visual_search_exp,2024.1.5,None,2024-10-10 15h35.09.444867 +0530,
122,0,122,0,202.01781729999857,,201.92789419999826,10,202.01781729999857,202.01781729999857,0.05663519999870914,202.95554640000046,[-0.26],[0.35],[1],[0],[0],[0.9716383999984828],['target'],492063,001,2024-10-10_15h34.59.354,visual_search_exp,2024.1.5,None,2024-10-10 15h35.09.444867 +0530,
123,0,123,0,203.0199911000018,,202.96246719999908,5,203.0199911000018,203.0199911000018,0.030164300002070377,204.25769969999965,[0.075],[0.22333333333333333],[1],[0],[0],[1.2656664999994973],['target'],492063,001,2024-10-10_15h34.59.354,visual_search_exp,2024.1.5,None,2024-10-10 15h35.09.444867 +0530,
124,0,124,0,204.3216281999994,,204.26338229999965,5,204.3216281999994,204.3216281999994,0.029468400000041584,205.17444239999895,[0.195],[-0.355],[1],[0],[0],[0.8820856000020285],['target'],492063,001,2024-10-10_15h34.59.354,visual_search_exp,2024.1.5,None,2024-10-10 15h35.09.444867 +0530,
125,0,125,0,205.28947010000047,,205.180472,10,205.28947010000047,205.28947010000047,0.0674416999972891,206.81018549999862,[-0.49666666666666665],[-0.35833333333333334],[1],[0],[0],[1.56272479999825],['target'],492063,001,2024-10-10_15h34.59.354,visual_search_exp,2024.1.5,None,2024-10-10 15h35.09.444867 +0530,
126,0,126,0,206.92404159999933,,206.8224577000001,10,206.92404159999933,206.92404159999933,0.06700899999850662,207.90968259999863,[0.2733333333333333],[-0.03833333333333333],[1],[0],[0],[1.022614400000748],['target'],492063,001,2024-10-10_15h34.59.354,visual_search_exp,2024.1.5,None,2024-10-10 15h35.09.444867 +0530,
127,0,127,0,207.9580539999988,,207.91544540000177,5,207.9580539999988,207.9580539999988,0.027268000001640758,208.99615389999963,[0.48833333333333334],[0.24166666666666667],[1],[0],[0],[1.0540587000032247],['target'],492063,001,2024-10-10_15h34.59.354,visual_search_exp,2024.1.5,None,2024-10-10 15h35.09.444867 +0530,
128,0,128,0,209.04201069999908,,209.00204010000016,5,209.04201069999908,209.04201069999908,0.027394299999286886,210.41420500000095,[-0.11],[-0.305],[1],[0],[0],[1.3853765999992902],['target'],492063,001,2024-10-10_15h34.59.354,visual_search_exp,2024.1.5,None,2024-10-10 15h35.09.444867 +0530,
129,0,129,0,210.49349620000066,,210.41980609999882,10,210.49349620000066,210.49349620000066,0.05447150000327383,211.93059640000138,[0.20166666666666666],[-0.025],[1],[0],[0],[1.45697029999792],['target'],492063,001,2024-10-10_15h34.59.354,visual_search_exp,2024.1.5,None,2024-10-10 15h35.09.444867 +0530,
130,0,130,0,211.97859569999855,,211.93645240000114,5,211.97859569999855,211.97859569999855,0.029075499998725718,213.18365460000132,[-0.09833333333333333],[0.10666666666666667],[1],[0],[0],[1.218784600001527],['target'],492063,001,2024-10-10_15h34.59.354,visual_search_exp,2024.1.5,None,2024-10-10 15h35.09.444867 +0530,
131,0,131,0,213.2473295000018,,213.18960460000017,5,213.2473295000018,213.2473295000018,0.028197299998282688,214.13535200000115,[-0.045],[0.40166666666666667],[1],[0],[0],[0.9181796000011673],['target'],492063,001,2024-10-10_15h34.59.354,visual_search_exp,2024.1.5,None,2024-10-10 15h35.09.444867 +0530,
132,0,132,0,214.19765280000138,,214.14211459999933,5,214.19765280000138,214.19765280000138,0.030176200001733378,215.2702352999986,[0.3933333333333333],[0.245],[1],[0],[0],[1.098788000002969],['target'],492063,001,2024-10-10_15h34.59.354,visual_search_exp,2024.1.5,None,2024-10-10 15h35.09.444867 +0530,
133,0,133,0,215.3320351000002,,215.27601660000073,5,215.3320351000002,215.3320351000002,0.029552700001659105,217.02126230000067,[0.18333333333333332],[-0.395],[1],[0],[0],[1.716304300000047],['target'],492063,001,2024-10-10_15h34.59.354,visual_search_exp,2024.1.5,None,2024-10-10 15h35.09.444867 +0530,
134,0,134,0,217.1183267999986,,217.02714790000027,10,217.1183267999986,217.1183267999986,0.056740299998637056,219.0901640000011,[-0.02],[0.09666666666666666],[1],[0],[0],[2.0067132000003767],['target'],492063,001,2024-10-10_15h34.59.354,visual_search_exp,2024.1.5,None,2024-10-10 15h35.09.444867 +0530,
135,0,135,0,219.16996859999927,,219.10026329999891,5,219.16996859999927,219.16996859999927,0.045552999999927124,220.4571489000009,[-0.5033333333333333],[-0.12666666666666668],[1],[0],[0],[1.313105799999903],['target'],492063,001,2024-10-10_15h34.59.354,visual_search_exp,2024.1.5,None,2024-10-10 15h35.09.444867 +0530,
136,0,136,0,220.50444720000087,,220.46290560000125,5,220.50444720000087,220.50444720000087,0.028500000000349246,221.6263680000011,[-0.04833333333333333],[0.35833333333333334],[1],[0],[0],[1.13556520000202],['target'],492063,001,2024-10-10_15h34.59.354,visual_search_exp,2024.1.5,None,2024-10-10 15h35.09.444867 +0530,
137,0,137,0,221.70680670000002,,221.6322074000018,10,221.70680670000002,221.70680670000002,0.05523410000023432,223.0765664999999,[-0.2683333333333333],[-0.43166666666666664],[1],[0],[0],[1.3897741000000678],['target'],492063,001,2024-10-10_15h34.59.354,visual_search_exp,2024.1.5,None,2024-10-10 15h35.09.444867 +0530,
138,0,138,0,223.17402460000085,,223.08246399999916,10,223.17402460000085,223.17402460000085,0.05508220000047004,224.9120436000012,[0.36666666666666664],[-0.12833333333333333],[1],[0],[0],[1.7751523999977508],['target'],492063,001,2024-10-10_15h34.59.354,visual_search_exp,2024.1.5,None,2024-10-10 15h35.09.444867 +0530,
139,0,139,0,225.0101117000013,,224.9179949999998,10,225.0101117000013,225.0101117000013,0.05745000000024447,227.98151589999907,[-0.345],[-0.22333333333333333],[1],[0],[0],[3.0067457999975886],['target'],492063,001,2024-10-10_15h34.59.354,visual_search_exp,2024.1.5,None,2024-10-10 15h35.09.444867 +0530,
140,0,140,0,228.04646579999826,,227.98725840000043,5,228.04646579999826,228.04646579999826,0.029093100001773564,229.3190848000013,[0.205],[0.07833333333333334],[1],[0],[0],[1.3033098999985668],['target'],492063,001,2024-10-10_15h34.59.354,visual_search_exp,2024.1.5,None,2024-10-10 15h35.09.444867 +0530,
141,0,141,0,229.38167109999995,,229.32519590000084,5,229.38167109999995,229.38167109999995,0.028773899997759145,230.38769989999855,[0.44166666666666665],[0.29833333333333334],[1],[0],[0],[1.034333700001298],['target'],492063,001,2024-10-10_15h34.59.354,visual_search_exp,2024.1.5,None,2024-10-10 15h35.09.444867 +0530,
142,0,142,0,230.48207909999837,,230.39364280000154,10,230.48207909999837,230.48207909999837,0.06060559999968973,231.83643070000107,[-0.235],[-0.13666666666666666],[1],[0],[0],[1.3828130999972927],['target'],492063,001,2024-10-10_15h34.59.354,visual_search_exp,2024.1.5,None,2024-10-10 15h35.09.444867 +0530,
143,0,143,0,231.90088109999851,,231.84790300000168,5,231.90088109999851,231.90088109999851,0.040203000000474276,232.9054028999999,[0.32],[0.11166666666666666],[1],[0],[0],[1.0194200000005367],['target'],492063,001,2024-10-10_15h34.59.354,visual_search_exp,2024.1.5,None,2024-10-10 15h35.09.444867 +0530,
144,0,144,0,233.0020708000011,,232.9111183999994,10,233.0020708000011,233.0020708000011,0.056036500001937384,234.30557709999994,[0.20666666666666667],[0.31],[1],[0],[0],[1.339064600000711],['target'],492063,001,2024-10-10_15h34.59.354,visual_search_exp,2024.1.5,None,2024-10-10 15h35.09.444867 +0530,
145,0,145,0,234.40399930000058,,234.31130869999834,10,234.40399930000058,234.40399930000058,0.055383499999152264,235.40673510000124,[-0.08833333333333333],[0.2916666666666667],[1],[0],[0],[1.0406285999997635],['target'],492063,001,2024-10-10_15h34.59.354,visual_search_exp,2024.1.5,None,2024-10-10 15h35.09.444867 +0530,
146,0,146,0,235.45449310000186,,235.41256879999855,5,235.45449310000186,235.45449310000186,0.029417000001558335,236.8602744000018,[-0.08833333333333333],[-0.23666666666666666],[1],[0],[0],[1.4189996999994037],['target'],492063,001,2024-10-10_15h34.59.354,visual_search_exp,2024.1.5,None,2024-10-10 15h35.09.444867 +0530,
147,0,147,0,236.92246689999956,,236.86590680000154,5,236.92246689999956,236.92246689999956,0.028670299998339033,237.96129830000064,[-0.11833333333333333],[0.056666666666666664],[1],[0],[0],[1.0673177999997279],['target'],492063,001,2024-10-10_15h34.59.354,visual_search_exp,2024.1.5,None,2024-10-10 15h35.09.444867 +0530,
148,0,148,0,238.05707039999834,,237.96719289999965,10,238.05707039999834,238.05707039999834,0.0561470000029658,239.06004780000148,[0.3016666666666667],[0.325],[1],[0],[0],[1.0373489999983576],['target'],492063,001,2024-10-10_15h34.59.354,visual_search_exp,2024.1.5,None,2024-10-10 15h35.09.444867 +0530,
149,0,149,0,239.1427248,,239.06591000000117,10,239.1427248,239.1427248,0.05398769999737851,241.2797400999989,[-0.06333333333333334],[-0.23333333333333334],[1],[0],[0],[2.1605244999991555],['target'],492063,001,2024-10-10_15h34.59.354,visual_search_exp,2024.1.5,None,2024-10-10 15h35.09.444867 +0530,
150,0,150,0,241.37807420000172,,241.28556839999874,10,241.37807420000172,241.37807420000172,0.05578330000207643,243.04932840000038,[-0.08666666666666667],[-0.35333333333333333],[1],[0],[0],[1.7086228000007395],['target'],492063,001,2024-10-10_15h34.59.354,visual_search_exp,2024.1.5,None,2024-10-10 15h35.09.444867 +0530,
151,0,151,0,243.11365060000026,,243.0551196000015,5,243.11365060000026,243.11365060000026,0.035211800000979565,244.26923449999958,[0.39666666666666667],[0.165],[1],[0],[0],[1.1795229999988806],['target'],492063,001,2024-10-10_15h34.59.354,visual_search_exp,2024.1.5,None,2024-10-10 15h35.09.444867 +0530,
152,0,152,0,244.33055009999953,,244.27490640000178,5,244.33055009999953,244.33055009999953,0.027075599999079714,245.1696333,[0.4083333333333333],[0.043333333333333335],[1],[0],[0],[0.8682429000000411],['target'],492063,001,2024-10-10_15h34.59.354,visual_search_exp,2024.1.5,None,2024-10-10 15h35.09.444867 +0530,
153,0,153,0,245.2659950999987,,245.1754108999994,10,245.2659950999987,245.2659950999987,0.05800900000031106,247.00254249999853,[0.04833333333333333],[0.4083333333333333],[1],[0],[0],[1.7698008000006666],['target'],492063,001,2024-10-10_15h34.59.354,visual_search_exp,2024.1.5,None,2024-10-10 15h35.09.444867 +0530,
154,0,154,0,247.05021040000065,,247.0082927000003,5,247.05021040000065,247.05021040000065,0.028524400000605965,248.01997839999967,[-0.13166666666666665],[0.42833333333333334],[1],[0],[0],[0.9838340999995125],['target'],492063,001,2024-10-10_15h34.59.354,visual_search_exp,2024.1.5,None,2024-10-10 15h35.09.444867 +0530,
155,0,155,0,248.06791050000174,,248.0257386000012,5,248.06791050000174,248.06791050000174,0.028391899999405723,249.271373399999,[0.12],[-0.27666666666666667],[1],[0],[0],[1.2177603999989515],['target'],492063,001,2024-10-10_15h34.59.354,visual_search_exp,2024.1.5,None,2024-10-10 15h35.09.444867 +0530,
156,0,156,0,249.36982799999896,,249.27821949999998,10,249.36982799999896,249.36982799999896,0.05479479999848991,252.0081699000002,[-0.09666666666666666],[-0.16666666666666666],[1],[0],[0],[2.676003699998546],['target'],492063,001,2024-10-10_15h34.59.354,visual_search_exp,2024.1.5,None,2024-10-10 15h35.09.444867 +0530,
157,0,157,0,252.10669979999875,,252.01402059999964,10,252.10669979999875,252.10669979999875,0.05481970000255387,253.0430965000014,[-0.021666666666666667],[0.3883333333333333],[1],[0],[0],[0.9749073999992106],['target'],492063,001,2024-10-10_15h34.59.354,visual_search_exp,2024.1.5,None,2024-10-10 15h35.09.444867 +0530,
158,0,158,0,253.08999179999955,,253.04885339999964,5,253.08999179999955,253.08999179999955,0.028684000000794185,254.1456481999994,[0.45],[0.18],[1],[0],[0],[1.068644499999209],['target'],492063,001,2024-10-10_15h34.59.354,visual_search_exp,2024.1.5,None,2024-10-10 15h35.09.444867 +0530,
159,0,159,0,254.20788470000116,,254.15141239999866,5,254.20788470000116,254.20788470000116,0.037050400002044626,255.06442379999862,[0.4666666666666667],[0.155],[1],[0],[0],[0.8766374999977415],['target'],492063,001,2024-10-10_15h34.59.354,visual_search_exp,2024.1.5,None,2024-10-10 15h35.09.444867 +0530,
160,0,160,0,255.16014820000055,,255.0703027999989,10,255.16014820000055,255.16014820000055,0.055656799999269424,256.6622271000015,[-0.39],[0.041666666666666664],[1],[0],[0],[1.5368506999984675],['target'],492063,001,2024-10-10_15h34.59.354,visual_search_exp,2024.1.5,None,2024-10-10 15h35.09.444867 +0530,
161,0,161,0,256.74418660000083,,256.66801960000157,10,256.74418660000083,256.74418660000083,0.053960599998390535,257.9817527000014,[-0.025],[-0.195],[1],[0],[0],[1.260433399998874],['target'],492063,001,2024-10-10_15h34.59.354,visual_search_exp,2024.1.5,None,2024-10-10 15h35.09.444867 +0530,
162,0,162,0,258.04641059999994,,257.987578100001,5,258.04641059999994,258.04641059999994,0.02867329999935464,259.83647589999964,[-0.10666666666666667],[-0.45166666666666666],[1],[0],[0],[1.820827499999723],['target'],492063,001,2024-10-10_15h34.59.354,visual_search_exp,2024.1.5,None,2024-10-10 15h35.09.444867 +0530,
163,0,163,0,259.93078709999827,,259.84214730000167,10,259.93078709999827,259.93078709999827,0.05520600000090781,261.26807270000063,[-0.018333333333333333],[0.12],[1],[0],[0],[1.3711841000003915],['target'],492063,001,2024-10-10_15h34.59.354,visual_search_exp,2024.1.5,None,2024-10-10 15h35.09.444867 +0530,
164,0,164,0,261.3668983999996,,261.27399460000015,10,261.3668983999996,261.3668983999996,0.054911100000026636,262.50285000000076,[0.10666666666666667],[0.295],[1],[0],[0],[1.1746219000015117],['target'],492063,001,2024-10-10_15h34.59.354,visual_search_exp,2024.1.5,None,2024-10-10 15h35.09.444867 +0530,
165,0,165,0,262.60071569999855,,262.50854919999983,10,262.60071569999855,262.60071569999855,0.056873300000006566,264.0716563999995,[-0.095],[-0.2783333333333333],[1],[0],[0],[1.50674589999835],['target'],492063,001,2024-10-10_15h34.59.354,visual_search_exp,2024.1.5,None,2024-10-10 15h35.09.444867 +0530,
166,0,166,0,264.1191633000017,,264.07744060000186,5,264.1191633000017,264.1191633000017,0.028229999999894062,265.0580870999984,[0.04],[0.22166666666666668],[1],[0],[0],[0.9529366999995545],['target'],492063,001,2024-10-10_15h34.59.354,visual_search_exp,2024.1.5,None,2024-10-10 15h35.09.444867 +0530,
167,0,167,0,265.121016699999,,265.0637815000009,5,265.121016699999,265.121016699999,0.028850300001067808,265.92560310000044,[0.30333333333333334],[0.3416666666666667],[1],[0],[0],[0.8335650999979407],['target'],492063,001,2024-10-10_15h34.59.354,visual_search_exp,2024.1.5,None,2024-10-10 15h35.09.444867 +0530,
168,0,168,0,266.0211469999995,,265.9314360999997,10,266.0211469999995,266.0211469999995,0.05392289999872446,267.8586695999984,[0.17333333333333334],[0.155],[1],[0],[0],[1.8738162000008742],['target'],492063,001,2024-10-10_15h34.59.354,visual_search_exp,2024.1.5,None,2024-10-10 15h35.09.444867 +0530,
169,0,169,0,267.95733420000033,,267.86443190000136,10,267.95733420000033,267.95733420000033,0.061845100000937236,269.44389880000017,[-0.285],[-0.255],[1],[0],[0],[1.518159300001571],['target'],492063,001,2024-10-10_15h34.59.354,visual_search_exp,2024.1.5,None,2024-10-10 15h35.09.444867 +0530,
170,0,170,0,269.52506709999943,,269.44973350000146,10,269.52506709999943,269.52506709999943,0.05284179999944172,271.1127441999997,[0.24666666666666667],[-0.095],[1],[0],[0],[1.6108444000019517],['target'],492063,001,2024-10-10_15h34.59.354,visual_search_exp,2024.1.5,None,2024-10-10 15h35.09.444867 +0530,
171,0,171,0,271.2106430999993,,271.1186478999989,10,271.2106430999993,271.2106430999993,0.05633809999926598,272.5474405999994,[0.24333333333333335],[0.24166666666666667],[1],[0],[0],[1.3731160999996064],['target'],492063,001,2024-10-10_15h34.59.354,visual_search_exp,2024.1.5,None,2024-10-10 15h35.09.444867 +0530,
172,0,172,0,272.6282797999993,,272.55332510000153,10,272.6282797999993,272.6282797999993,0.056077100001857616,273.79882440000074,[0.4816666666666667],[0.43833333333333335],[1],[0],[0],[1.190073099998699],['target'],492063,001,2024-10-10_15h34.59.354,visual_search_exp,2024.1.5,None,2024-10-10 15h35.09.444867 +0530,
173,0,173,0,273.8636054000017,,273.8045755999992,5,273.8636054000017,273.8636054000017,0.04155760000139708,274.65232639999886,[0.225],[0.07666666666666666],[1],[0],[0],[0.8068348000015249],['target'],492063,001,2024-10-10_15h34.59.354,visual_search_exp,2024.1.5,None,2024-10-10 15h35.09.444867 +0530,
174,0,174,0,274.71352599999955,,274.65805040000123,5,274.71352599999955,274.71352599999955,0.029338000000279862,275.73592350000035,[0.3283333333333333],[-0.31],[1],[0],[0],[1.0491683999971428],['target'],492063,001,2024-10-10_15h34.59.354,visual_search_exp,2024.1.5,None,2024-10-10 15h35.09.444867 +0530,
175,0,175,0,275.781565199999,,275.7417620999986,5,275.781565199999,275.781565199999,0.02757470000142348,277.2213453000004,[0.2966666666666667],[-0.18166666666666667],[1],[0],[0],[1.4526048000006995],['target'],492063,001,2024-10-10_15h34.59.354,visual_search_exp,2024.1.5,None,2024-10-10 15h35.09.444867 +0530,
176,0,176,0,277.31830980000086,,277.2270810000009,10,277.31830980000086,277.31830980000086,0.05394430000160355,278.7872540999997,[-0.3516666666666667],[-0.18333333333333332],[1],[0],[0],[1.5068584000000556],['target'],492063,001,2024-10-10_15h34.59.354,visual_search_exp,2024.1.5,None,2024-10-10 15h35.09.444867 +0530,
177,0,177,0,278.88509909999993,,278.7933679000016,10,278.88509909999993,278.88509909999993,0.055649300000368385,280.2222462999998,[-0.5066666666666667],[0.26],[1],[0],[0],[1.3740457000021706],['target'],492063,001,2024-10-10_15h34.59.354,visual_search_exp,2024.1.5,None,2024-10-10 15h35.09.444867 +0530,
178,0,178,0,280.30430360000173,,280.22814690000087,10,280.30430360000173,280.30430360000173,0.05443159999776981,281.3738295000003,[-0.28],[0.3416666666666667],[1],[0],[0],[1.0918712000020605],['target'],492063,001,2024-10-10_15h34.59.354,visual_search_exp,2024.1.5,None,2024-10-10 15h35.09.444867 +0530,
179,0,179,0,281.4376531000016,,281.3796548999999,5,281.4376531000016,281.4376531000016,0.029789700001856545,283.4770524000014,[0.49166666666666664],[-0.23166666666666666],[1],[0],[0],[2.068120199997793],['target'],492063,001,2024-10-10_15h34.59.354,visual_search_exp,2024.1.5,None,2024-10-10 15h35.09.444867 +0530,
180,0,180,0,283.57454159999907,,283.4827804999986,10,283.57454159999907,283.57454159999907,0.053820599998289254,285.84506079999846,[-0.335],[0.43833333333333335],[1],[0],[0],[2.3091168999999354],['target'],492063,001,2024-10-10_15h34.59.354,visual_search_exp,2024.1.5,None,2024-10-10 15h35.09.444867 +0530,
181,0,181,0,285.90969889999906,,285.8508709000016,5,285.90969889999906,285.90969889999906,0.029236399997898843,287.2632498999992,[0.34833333333333333],[0.37166666666666665],[1],[0],[0],[1.3837080000012065],['target'],492063,001,2024-10-10_15h34.59.354,visual_search_exp,2024.1.5,None,2024-10-10 15h35.09.444867 +0530,
182,0,182,0,287.32911389999936,,287.2690278000009,5,287.32911389999936,287.32911389999936,0.028999300000577932,288.24906120000014,[0.22],[0.3433333333333333],[1],[0],[0],[0.9517119999982242],['target'],492063,001,2024-10-10_15h34.59.354,visual_search_exp,2024.1.5,None,2024-10-10 15h35.09.444867 +0530,
183,0,183,0,288.34586760000093,,288.2549704999983,10,288.34586760000093,288.34586760000093,0.05645679999724962,289.3820694999995,[0.39666666666666667],[0.46166666666666667],[1],[0],[0],[1.071286999998847],['target'],492063,001,2024-10-10_15h34.59.354,visual_search_exp,2024.1.5,None,2024-10-10 15h35.09.444867 +0530,
184,0,184,0,289.42991469999833,,289.3879660999992,5,289.42991469999833,289.42991469999833,0.029241100000945153,290.66867419999835,[-0.22666666666666666],[-0.18666666666666668],[1],[0],[0],[1.2520791000024474],['target'],492063,001,2024-10-10_15h34.59.354,visual_search_exp,2024.1.5,None,2024-10-10 15h35.09.444867 +0530,
185,0,185,0,290.7493152999996,,290.67451430000074,10,290.7493152999996,290.7493152999996,0.051719500002946006,292.3180585000009,[0.16],[0.24333333333333335],[1],[0],[0],[1.592545199997403],['target'],492063,001,2024-10-10_15h34.59.354,visual_search_exp,2024.1.5,None,2024-10-10 15h35.09.444867 +0530,
186,0,186,0,292.3833135999994,,292.32439720000184,5,292.3833135999994,292.3833135999994,0.037319499999284744,293.3720622000001,[0.42833333333333334],[0.35833333333333334],[1],[0],[0],[1.0110977000003913],['target'],492063,001,2024-10-10_15h34.59.354,visual_search_exp,2024.1.5,None,2024-10-10 15h35.09.444867 +0530,
187,0,187,0,293.417712800001,,293.37776510000185,5,293.417712800001,293.417712800001,0.027508599996508565,294.4227088000007,[0.24666666666666667],[0.15333333333333332],[1],[0],[0],[1.0180663999999524],['target'],492063,001,2024-10-10_15h34.59.354,visual_search_exp,2024.1.5,None,2024-10-10 15h35.09.444867 +0530,
188,0,188,0,294.5196858999989,,294.42853000000105,10,294.5196858999989,294.5196858999989,0.053802800000994466,295.72299320000093,[-0.22666666666666666],[-0.08666666666666667],[1],[0],[0],[1.2412903000004007],['target'],492063,001,2024-10-10_15h34.59.354,visual_search_exp,2024.1.5,None,2024-10-10 15h35.09.444867 +0530,
189,0,189,0,295.7864584000017,,295.72880879999866,5,295.7864584000017,295.7864584000017,0.029100200001266785,297.7936871999991,[-0.4033333333333333],[-0.22833333333333333],[1],[0],[0],[2.0363101000002644],['target'],492063,001,2024-10-10_15h34.59.354,visual_search_exp,2024.1.5,None,2024-10-10 15h35.09.444867 +0530,
190,0,190,0,297.85639660000015,,297.7994374000009,5,297.85639660000015,297.85639660000015,0.02925650000179303,299.2262730000002,[0.185],[-0.14333333333333334],[1],[0],[0],[1.3981653000009828],['target'],492063,001,2024-10-10_15h34.59.354,visual_search_exp,2024.1.5,None,2024-10-10 15h35.09.444867 +0530,
191,0,191,0,299.3074325999987,,299.23183470000004,10,299.3074325999987,299.3074325999987,0.052557200000592275,300.84497829999964,[-0.11166666666666666],[-0.31333333333333335],[1],[0],[0],[1.561171800000011],['target'],492063,001,2024-10-10_15h34.59.354,visual_search_exp,2024.1.5,None,2024-10-10 15h35.09.444867 +0530,
192,0,192,0,300.9266056999986,,300.8507334999995,10,300.9266056999986,300.9266056999986,0.054638000001432374,302.29649860000063,[-0.075],[0.08],[1],[0],[0],[1.3917667999994592],['target'],492063,001,2024-10-10_15h34.59.354,visual_search_exp,2024.1.5,None,2024-10-10 15h35.09.444867 +0530,
193,0,193,0,302.3608370000002,,302.3023500999989,5,302.3608370000002,302.3608370000002,0.029260200000862824,304.5336919000001,[0.14333333333333334],[0.4633333333333333],[1],[0],[0],[2.2027148000015586],['target'],492063,001,2024-10-10_15h34.59.354,visual_search_exp,2024.1.5,None,2024-10-10 15h35.09.444867 +0530,
194,0,194,0,304.6140054999996,,304.53955620000124,10,304.6140054999996,304.6140054999996,0.05418110000027809,307.16804369999954,[-0.38333333333333336],[-0.4666666666666667],[1],[0],[0],[2.574874899997667],['target'],492063,001,2024-10-10_15h34.59.354,visual_search_exp,2024.1.5,None,2024-10-10 15h35.09.444867 +0530,
195,0,195,0,307.23307059999934,,307.1736932999993,5,307.23307059999934,307.23307059999934,0.029298099998413818,308.6196334000015,[-0.2783333333333333],[-0.4583333333333333],[1],[0],[0],[1.4172169999983453],['target'],492063,001,2024-10-10_15h34.59.354,visual_search_exp,2024.1.5,None,2024-10-10 15h35.09.444867 +0530,
196,0,196,0,308.66753550000067,,308.6253362999996,5,308.66753550000067,308.66753550000067,0.027424399999290472,309.7558151999983,[0.19],[-0.06333333333333334],[1],[0],[0],[1.1036949000008462],['target'],492063,001,2024-10-10_15h34.59.354,visual_search_exp,2024.1.5,None,2024-10-10 15h35.09.444867 +0530,
197,0,197,0,309.8361690999991,,309.76183239999955,10,309.8361690999991,309.8361690999991,0.0529015000029176,310.47277830000166,[0.08],[-0.07833333333333334],[1],[0],[0],[0.6586113000012119],['target'],492063,001,2024-10-10_15h34.59.354,visual_search_exp,2024.1.5,None,2024-10-10 15h35.09.444867 +0530,
198,0,198,0,310.53628390000085,,310.4787859999997,5,310.53628390000085,310.53628390000085,0.028630500000872416,311.4919302999988,[0.17],[-0.37],[1],[0],[0],[0.985179600000265],['target'],492063,001,2024-10-10_15h34.59.354,visual_search_exp,2024.1.5,None,2024-10-10 15h35.09.444867 +0530,
199,0,199,0,311.57139169999937,,311.4976612999999,10,311.57139169999937,311.57139169999937,0.05122579999806476,313.54232709999997,[-0.3566666666666667],[0.2683333333333333],[1],[0],[0],[1.9940989999995509],['target'],492063,001,2024-10-10_15h34.59.354,visual_search_exp,2024.1.5,None,2024-10-10 15h35.09.444867 +0530,
