trials.thisRepN,trials.thisTrialN,trials.thisN,trials.thisIndex,thisRow.t,notes,trial.started,num_distr,fixation.started,target.started,mouse.started,trial.stopped,mouse.x,mouse.y,mouse.leftButton,mouse.midButton,mouse.rightButton,mouse.time,mouse.clicked_name,participant,session,date,expName,psychopyVersion,frameRate,expStart,
0,0,0,0,0.07911260000037146,,0.01865179999731481,5,0.07911260000037146,0.07911260000037146,0.05507980000038515,2.6092860999997356,[-0.075],[-0.17833333333333334],[1],[0],[0],[2.553174799999397],['target'],567548,001,2024-10-10_16h01.17.050,visual_search_exp,2024.1.5,None,2024-10-10 16h01.27.271528 +0530,
1,0,1,0,2.8827548999979626,,2.6231341999991855,10,2.8827548999979626,2.8827548999979626,0.2241059000007226,4.286993199999415,[0.45666666666666667],[-0.016666666666666666],[1],[0],[0],[1.4410028000020247],['target'],567548,001,2024-10-10_16h01.17.050,visual_search_exp,2024.1.5,None,2024-10-10 16h01.27.271528 +0530,
2,0,2,0,4.367992699997558,,4.292824199997995,10,4.367992699997558,4.367992699997558,0.056445199999870965,5.771168899998884,[0.38],[0.08666666666666667],[1],[0],[0],[1.4225355999988096],['target'],567548,001,2024-10-10_16h01.17.050,visual_search_exp,2024.1.5,None,2024-10-10 16h01.27.271528 +0530,
3,0,3,0,5.819461799997953,,5.777006099997379,5,5.819461799997953,5.819461799997953,0.030033600000024308,7.306257500000356,[-0.13166666666666665],[-0.175],[1],[0],[0],[1.49984840000252],['target'],567548,001,2024-10-10_16h01.17.050,visual_search_exp,2024.1.5,None,2024-10-10 16h01.27.271528 +0530,
4,0,4,0,7.371154299999034,,7.3125507999975525,5,7.371154299999034,7.371154299999034,0.030061599998589372,9.443435900000622,[-0.10166666666666667],[-0.475],[1],[0],[0],[2.1013978000009956],['target'],567548,001,2024-10-10_16h01.17.050,visual_search_exp,2024.1.5,None,2024-10-10 16h01.27.271528 +0530,
5,0,5,0,9.522701699999743,,9.449349999998958,10,9.522701699999743,9.522701699999743,0.055594999997993,10.876452799999242,[0.3566666666666667],[-0.14333333333333334],[1],[0],[0],[1.3721465000016906],['target'],567548,001,2024-10-10_16h01.17.050,visual_search_exp,2024.1.5,None,2024-10-10 16h01.27.271528 +0530,
6,0,6,0,10.957877799999551,,10.882131599999411,10,10.957877799999551,10.957877799999551,0.053680000000895234,12.428277399998478,[-0.25166666666666665],[-0.06833333333333333],[1],[0],[0],[1.493058000000019],['target'],567548,001,2024-10-10_16h01.17.050,visual_search_exp,2024.1.5,None,2024-10-10 16h01.27.271528 +0530,
7,0,7,0,12.50975859999744,,12.43411339999875,10,12.50975859999744,12.50975859999744,0.05558559999917634,14.014852899999823,[-0.4716666666666667],[0.305],[1],[0],[0],[1.525685299999168],['target'],567548,001,2024-10-10_16h01.17.050,visual_search_exp,2024.1.5,None,2024-10-10 16h01.27.271528 +0530,
8,0,8,0,14.078588899999886,,14.020925900000293,5,14.078588899999886,14.078588899999886,0.02889820000200416,15.266350099998817,[-0.08166666666666667],[0.43],[1],[0],[0],[1.2173177000004216],['target'],567548,001,2024-10-10_16h01.17.050,visual_search_exp,2024.1.5,None,2024-10-10 16h01.27.271528 +0530,
9,0,9,0,15.329043999998248,,15.272090399997978,5,15.329043999998248,15.329043999998248,0.028334299997368362,16.43384159999914,[-0.24666666666666667],[0.155],[1],[0],[0],[1.133804199998849],['target'],567548,001,2024-10-10_16h01.17.050,visual_search_exp,2024.1.5,None,2024-10-10 16h01.27.271528 +0530,
10,0,10,0,16.497571799998695,,16.439890199999354,5,16.497571799998695,16.497571799998695,0.028618600001209415,18.004265199997462,[-0.30833333333333335],[0.08],[1],[0],[0],[1.5362824000003457],['target'],567548,001,2024-10-10_16h01.17.050,visual_search_exp,2024.1.5,None,2024-10-10 16h01.27.271528 +0530,
11,0,11,0,18.066177199998492,,18.015726400000858,5,18.066177199998492,18.066177199998492,0.029171399997721892,19.588553699999466,[0.03833333333333333],[-0.415],[1],[0],[0],[1.5455756000010297],['target'],567548,001,2024-10-10_16h01.17.050,visual_search_exp,2024.1.5,None,2024-10-10 16h01.27.271528 +0530,
12,0,12,0,19.68379300000015,,19.59450889999789,10,19.68379300000015,19.68379300000015,0.05538510000042152,29.797118799997406,[0.27666666666666667],[-0.17833333333333334],[1],[0],[0],[10.147599100000662],['target'],567548,001,2024-10-10_16h01.17.050,visual_search_exp,2024.1.5,None,2024-10-10 16h01.27.271528 +0530,
13,0,13,0,29.89572159999807,,29.80305319999752,10,29.89572159999807,29.89572159999807,0.05779140000231564,31.132673899999645,[-0.195],[0.20333333333333334],[1],[0],[0],[1.272207800000615],['target'],567548,001,2024-10-10_16h01.17.050,visual_search_exp,2024.1.5,None,2024-10-10 16h01.27.271528 +0530,
14,0,14,0,31.230093899997883,,31.13896079999904,10,31.230093899997883,31.230093899997883,0.0560079000024416,33.33514789999754,[0.17833333333333334],[0.21333333333333335],[1],[0],[0],[2.1408564999983355],['target'],567548,001,2024-10-10_16h01.17.050,visual_search_exp,2024.1.5,None,2024-10-10 16h01.27.271528 +0530,
15,0,15,0,33.39954179999768,,33.34116999999969,5,33.39954179999768,33.39954179999768,0.03265399999872898,34.555041299998265,[-0.445],[-0.07],[1],[0],[0],[1.181811899998138],['target'],567548,001,2024-10-10_16h01.17.050,visual_search_exp,2024.1.5,None,2024-10-10 16h01.27.271528 +0530,
16,0,16,0,34.633318500000314,,34.56097299999965,10,34.633318500000314,34.633318500000314,0.05319410000083735,37.20513650000066,[-0.06833333333333333],[-0.37166666666666665],[1],[0],[0],[2.5916619999989052],['target'],567548,001,2024-10-10_16h01.17.050,visual_search_exp,2024.1.5,None,2024-10-10 16h01.27.271528 +0530,
17,0,17,0,37.25425499999983,,37.210926100000506,5,37.25425499999983,37.25425499999983,0.029184999999415595,38.44167129999914,[0.28],[0.17833333333333334],[1],[0],[0],[1.202230700000655],['target'],567548,001,2024-10-10_16h01.17.050,visual_search_exp,2024.1.5,None,2024-10-10 16h01.27.271528 +0530,
18,0,18,0,38.53771059999781,,38.44770720000088,10,38.53771059999781,38.53771059999781,0.05830689999856986,39.84262039999885,[0.2966666666666667],[0.12666666666666668],[1],[0],[0],[1.3372216000025219],['target'],567548,001,2024-10-10_16h01.17.050,visual_search_exp,2024.1.5,None,2024-10-10 16h01.27.271528 +0530,
19,0,19,0,39.93934719999743,,39.8486355999994,10,39.93934719999743,39.93934719999743,0.05572949999987031,41.14285169999857,[-0.21833333333333332],[0.235],[1],[0],[0],[1.2391905000004044],['target'],567548,001,2024-10-10_16h01.17.050,visual_search_exp,2024.1.5,None,2024-10-10 16h01.27.271528 +0530,
20,0,20,0,41.241441099999065,,41.14872249999826,10,41.241441099999065,41.241441099999065,0.05807179999828804,42.67862199999945,[-0.265],[-0.19833333333333333],[1],[0],[0],[1.4725118999995175],['target'],567548,001,2024-10-10_16h01.17.050,visual_search_exp,2024.1.5,None,2024-10-10 16h01.27.271528 +0530,
21,0,21,0,42.77679139999964,,42.68449099999998,10,42.77679139999964,42.77679139999964,0.05851249999977881,45.14777789999789,[-0.29],[-0.32666666666666666],[1],[0],[0],[2.405384599998797],['target'],567548,001,2024-10-10_16h01.17.050,visual_search_exp,2024.1.5,None,2024-10-10 16h01.27.271528 +0530,
22,0,22,0,45.24606099999801,,45.15418900000077,10,45.24606099999801,45.24606099999801,0.06027090000134194,46.66620639999746,[-0.36333333333333334],[0.075],[1],[0],[0],[1.4529326999982004],['target'],567548,001,2024-10-10_16h01.17.050,visual_search_exp,2024.1.5,None,2024-10-10 16h01.27.271528 +0530,
23,0,23,0,46.731056000000535,,46.67199659999824,5,46.731056000000535,46.731056000000535,0.027488600000651786,48.11947869999858,[-0.14],[-0.46],[1],[0],[0],[1.4197232000005897],['target'],567548,001,2024-10-10_16h01.17.050,visual_search_exp,2024.1.5,None,2024-10-10 16h01.27.271528 +0530,
24,0,24,0,48.18257249999806,,48.125544999998965,5,48.18257249999806,48.18257249999806,0.02966010000091046,49.60321629999817,[0.22333333333333333],[-0.395],[1],[0],[0],[1.448605999998108],['target'],567548,001,2024-10-10_16h01.17.050,visual_search_exp,2024.1.5,None,2024-10-10 16h01.27.271528 +0530,
25,0,25,0,49.68397790000017,,49.60932889999822,10,49.68397790000017,49.68397790000017,0.05589299999701325,51.12303179999799,[0.19833333333333333],[-0.42],[1],[0],[0],[1.458335300001636],['target'],567548,001,2024-10-10_16h01.17.050,visual_search_exp,2024.1.5,None,2024-10-10 16h01.27.271528 +0530,
26,0,26,0,51.21855549999964,,51.129002599998785,10,51.21855549999964,51.21855549999964,0.0570592999974906,52.78958149999744,[-0.28],[-0.26],[1],[0],[0],[1.6042077000020072],['target'],567548,001,2024-10-10_16h01.17.050,visual_search_exp,2024.1.5,None,2024-10-10 16h01.27.271528 +0530,
27,0,27,0,52.887977300000784,,52.795386199999484,10,52.887977300000784,52.887977300000784,0.05744250000134343,54.758714199997485,[0.41],[0.2783333333333333],[1],[0],[0],[1.9065560000017285],['target'],567548,001,2024-10-10_16h01.17.050,visual_search_exp,2024.1.5,None,2024-10-10 16h01.27.271528 +0530,
28,0,28,0,54.822835200000554,,54.76464069999929,5,54.822835200000554,54.822835200000554,0.03210820000094827,56.81180250000034,[-0.025],[-0.04666666666666667],[1],[0],[0],[2.015512199999648],['target'],567548,001,2024-10-10_16h01.17.050,visual_search_exp,2024.1.5,None,2024-10-10 16h01.27.271528 +0530,
29,0,29,0,56.908865699999296,,56.818142799998895,10,56.908865699999296,56.908865699999296,0.056242300001031253,59.33002209999904,[0.03833333333333333],[0.08166666666666667],[1],[0],[0],[2.456288499997754],['target'],567548,001,2024-10-10_16h01.17.050,visual_search_exp,2024.1.5,None,2024-10-10 16h01.27.271528 +0530,
30,0,30,0,59.41057969999747,,59.335763099999895,10,59.41057969999747,59.41057969999747,0.054115599999931874,61.349854799998866,[-0.09666666666666666],[-0.09833333333333333],[1],[0],[0],[1.9605499999997846],['target'],567548,001,2024-10-10_16h01.17.050,visual_search_exp,2024.1.5,None,2024-10-10 16h01.27.271528 +0530,
31,0,31,0,61.41364049999902,,61.35555810000005,5,61.41364049999902,61.41364049999902,0.03071300000010524,62.60247769999842,[0.12666666666666668],[-0.18833333333333332],[1],[0],[0],[1.216753400000016],['target'],567548,001,2024-10-10_16h01.17.050,visual_search_exp,2024.1.5,None,2024-10-10 16h01.27.271528 +0530,
32,0,32,0,62.69846739999775,,62.6083049000008,10,62.69846739999775,62.69846739999775,0.05408570000145119,64.20255689999976,[0.3283333333333333],[0.14666666666666667],[1],[0],[0],[1.5407744000003731],['target'],567548,001,2024-10-10_16h01.17.050,visual_search_exp,2024.1.5,None,2024-10-10 16h01.27.271528 +0530,
33,0,33,0,64.28260769999906,,64.2085694999987,10,64.28260769999906,64.28260769999906,0.053604799999448005,65.75482560000091,[-0.30333333333333334],[0.185],[1],[0],[0],[1.493258500002412],['target'],567548,001,2024-10-10_16h01.17.050,visual_search_exp,2024.1.5,None,2024-10-10 16h01.27.271528 +0530,
34,0,34,0,65.81864379999752,,65.76086410000062,5,65.81864379999752,65.81864379999752,0.028853100000560516,67.44052309999825,[-0.22166666666666668],[0.43166666666666664],[1],[0],[0],[1.651470299999346],['target'],567548,001,2024-10-10_16h01.17.050,visual_search_exp,2024.1.5,None,2024-10-10 16h01.27.271528 +0530,
35,0,35,0,67.53676169999744,,67.44635879999987,10,67.53676169999744,67.53676169999744,0.056917000001703855,68.7405426999976,[-0.4633333333333333],[-0.058333333333333334],[1],[0],[0],[1.2378982999980508],['target'],567548,001,2024-10-10_16h01.17.050,visual_search_exp,2024.1.5,None,2024-10-10 16h01.27.271528 +0530,
36,0,36,0,68.80487499999799,,68.74659199999951,5,68.80487499999799,68.80487499999799,0.032313000003341585,70.35928149999745,[-0.045],[0.3],[1],[0],[0],[1.5809637000020302],['target'],567548,001,2024-10-10_16h01.17.050,visual_search_exp,2024.1.5,None,2024-10-10 16h01.27.271528 +0530,
37,0,37,0,70.44007829999828,,70.37036889999945,5,70.44007829999828,70.44007829999828,0.044843700001365505,71.62748229999852,[-0.3383333333333333],[0.3516666666666667],[1],[0],[0],[1.214187800000218],['target'],567548,001,2024-10-10_16h01.17.050,visual_search_exp,2024.1.5,None,2024-10-10 16h01.27.271528 +0530,
38,0,38,0,71.72460649999994,,71.63333729999795,10,71.72460649999994,71.72460649999994,0.05710199999884935,73.52851620000001,[-0.12333333333333334],[-0.34833333333333333],[1],[0],[0],[1.8386014999996405],['target'],567548,001,2024-10-10_16h01.17.050,visual_search_exp,2024.1.5,None,2024-10-10 16h01.27.271528 +0530,
39,0,39,0,73.59414800000013,,73.53496539999833,5,73.59414800000013,73.59414800000013,0.030379899999388726,74.69693449999977,[0.07333333333333333],[0.35333333333333333],[1],[0],[0],[1.132137699998566],['target'],567548,001,2024-10-10_16h01.17.050,visual_search_exp,2024.1.5,None,2024-10-10 16h01.27.271528 +0530,
40,0,40,0,74.79518579999785,,74.70300909999787,10,74.79518579999785,74.79518579999785,0.05762910000339616,76.16449549999743,[0.195],[0.16166666666666665],[1],[0],[0],[1.4045127000026696],['target'],567548,001,2024-10-10_16h01.17.050,visual_search_exp,2024.1.5,None,2024-10-10 16h01.27.271528 +0530,
41,0,41,0,76.22970390000046,,76.17043360000025,5,76.22970390000046,76.22970390000046,0.030034400002477923,78.40286959999867,[0.4683333333333333],[-0.255],[1],[0],[0],[2.2030024000014237],['target'],567548,001,2024-10-10_16h01.17.050,visual_search_exp,2024.1.5,None,2024-10-10 16h01.27.271528 +0530,
42,0,42,0,78.46508329999779,,78.40904039999805,5,78.46508329999779,78.46508329999779,0.02801729999919189,80.67043729999932,[-0.03333333333333333],[-0.24166666666666667],[1],[0],[0],[2.234166499998537],['target'],567548,001,2024-10-10_16h01.17.050,visual_search_exp,2024.1.5,None,2024-10-10 16h01.27.271528 +0530,
43,0,43,0,80.76735819999885,,80.6761860000006,10,80.76735819999885,80.76735819999885,0.05816599999889149,82.38895860000048,[0.4766666666666667],[-0.19333333333333333],[1],[0],[0],[1.655263799999375],['target'],567548,001,2024-10-10_16h01.17.050,visual_search_exp,2024.1.5,None,2024-10-10 16h01.27.271528 +0530,
44,0,44,0,82.45283449999988,,82.39479669999855,5,82.45283449999988,82.45283449999988,0.030242500000895234,83.95764829999825,[-0.445],[0.38333333333333336],[1],[0],[0],[1.533282500000496],['target'],567548,001,2024-10-10_16h01.17.050,visual_search_exp,2024.1.5,None,2024-10-10 16h01.27.271528 +0530,
45,0,45,0,84.02171109999836,,83.96375049999915,5,84.02171109999836,84.02171109999836,0.0284261000015249,85.76117650000015,[0.15833333333333333],[-0.008333333333333333],[1],[0],[0],[1.7695348000015656],['target'],567548,001,2024-10-10_16h01.17.050,visual_search_exp,2024.1.5,None,2024-10-10 16h01.27.271528 +0530,
46,0,46,0,85.8235323000008,,85.76709489999848,5,85.8235323000008,85.8235323000008,0.028667800001130672,87.64585349999834,[0.24666666666666667],[0.365],[1],[0],[0],[1.8507170999982918],['target'],567548,001,2024-10-10_16h01.17.050,visual_search_exp,2024.1.5,None,2024-10-10 16h01.27.271528 +0530,
47,0,47,0,87.74197669999921,,87.65165209999759,10,87.74197669999921,87.74197669999921,0.05518299999675946,89.4133961999978,[-0.19833333333333333],[-0.2733333333333333],[1],[0],[0],[1.7072518000022683],['target'],567548,001,2024-10-10_16h01.17.050,visual_search_exp,2024.1.5,None,2024-10-10 16h01.27.271528 +0530,
48,0,48,0,89.47782359999837,,89.42083999999886,5,89.47782359999837,89.47782359999837,0.028423599997040583,91.43388380000033,[0.0033333333333333335],[0.07666666666666666],[1],[0],[0],[1.9853598999980022],['target'],567548,001,2024-10-10_16h01.17.050,visual_search_exp,2024.1.5,None,2024-10-10 16h01.27.271528 +0530,
49,0,49,0,91.5132608999993,,91.43979240000044,10,91.5132608999993,91.5132608999993,0.05529240000032587,93.46799289999763,[0.055],[-0.04666666666666667],[1],[0],[0],[1.9733479999995325],['target'],567548,001,2024-10-10_16h01.17.050,visual_search_exp,2024.1.5,None,2024-10-10 16h01.27.271528 +0530,
50,0,50,0,93.56570629999987,,93.47961289999876,10,93.56570629999987,93.56570629999987,0.062237599999207305,95.51917069999763,[0.22666666666666666],[-0.46166666666666667],[1],[0],[0],[1.9792908999988867],['target'],567548,001,2024-10-10_16h01.17.050,visual_search_exp,2024.1.5,None,2024-10-10 16h01.27.271528 +0530,
51,0,51,0,95.6176876999998,,95.52514549999978,10,95.6176876999998,95.6176876999998,0.06063309999808553,96.92130259999976,[-0.27666666666666667],[-0.165],[1],[0],[0],[1.3362691000002087],['target'],567548,001,2024-10-10_16h01.17.050,visual_search_exp,2024.1.5,None,2024-10-10 16h01.27.271528 +0530,
52,0,52,0,97.00192249999964,,96.92708149999817,10,97.00192249999964,97.00192249999964,0.05345680000027642,98.42468589999771,[0.125],[-0.2783333333333333],[1],[0],[0],[1.4446555000031367],['target'],567548,001,2024-10-10_16h01.17.050,visual_search_exp,2024.1.5,None,2024-10-10 16h01.27.271528 +0530,
53,0,53,0,98.48747329999969,,98.43062849999842,5,98.48747329999969,98.48747329999969,0.028129999998782296,99.37581470000077,[0.20333333333333334],[-0.23333333333333334],[1],[0],[0],[0.9177091999990807],['target'],567548,001,2024-10-10_16h01.17.050,visual_search_exp,2024.1.5,None,2024-10-10 16h01.27.271528 +0530,
54,0,54,0,99.45468880000044,,99.38161009999749,10,99.45468880000044,99.45468880000044,0.05254559999957564,102.49327690000064,[-0.17666666666666667],[0.2916666666666667],[1],[0],[0],[3.0597538000001805],['target'],567548,001,2024-10-10_16h01.17.050,visual_search_exp,2024.1.5,None,2024-10-10 16h01.27.271528 +0530,
55,0,55,0,102.54191549999814,,102.49923719999788,5,102.54191549999814,102.54191549999814,0.029071000000840286,103.74633499999982,[-0.35833333333333334],[-0.14666666666666667],[1],[0],[0],[1.2185451000004832],['target'],567548,001,2024-10-10_16h01.17.050,visual_search_exp,2024.1.5,None,2024-10-10 16h01.27.271528 +0530,
56,0,56,0,103.84313909999764,,103.75290659999882,10,103.84313909999764,103.84313909999764,0.054773500000010245,105.01343110000016,[-0.11333333333333333],[0.3416666666666667],[1],[0],[0],[1.2063705000000482],['target'],567548,001,2024-10-10_16h01.17.050,visual_search_exp,2024.1.5,None,2024-10-10 16h01.27.271528 +0530,
57,0,57,0,105.07716549999896,,105.01938739999969,5,105.07716549999896,105.07716549999896,0.029739699999481672,106.7165075999983,[0.215],[-0.12833333333333333],[1],[0],[0],[1.667839699999604],['target'],567548,001,2024-10-10_16h01.17.050,visual_search_exp,2024.1.5,None,2024-10-10 16h01.27.271528 +0530,
58,0,58,0,106.77943989999767,,106.72259689999919,5,106.77943989999767,106.77943989999767,0.029371900000114692,108.13406499999837,[-0.38166666666666665],[0.31666666666666665],[1],[0],[0],[1.3827459999993152],['target'],567548,001,2024-10-10_16h01.17.050,visual_search_exp,2024.1.5,None,2024-10-10 16h01.27.271528 +0530,
59,0,59,0,108.19791629999963,,108.14087289999952,5,108.19791629999963,108.19791629999963,0.027657400001771748,109.21958339999765,[0.405],[-0.035],[1],[0],[0],[1.0515556999998807],['target'],567548,001,2024-10-10_16h01.17.050,visual_search_exp,2024.1.5,None,2024-10-10 16h01.27.271528 +0530,
60,0,60,0,109.28221819999817,,109.23036579999825,5,109.28221819999817,109.28221819999817,0.032865000001038425,110.23744009999791,[0.245],[0.14666666666666667],[1],[0],[0],[0.9760089000010339],['target'],567548,001,2024-10-10_16h01.17.050,visual_search_exp,2024.1.5,None,2024-10-10 16h01.27.271528 +0530,
61,0,61,0,110.31727369999862,,110.24312640000062,10,110.31727369999862,110.31727369999862,0.052300500003184425,111.7544448999979,[-0.38166666666666665],[-0.22833333333333333],[1],[0],[0],[1.4595560999987356],['target'],567548,001,2024-10-10_16h01.17.050,visual_search_exp,2024.1.5,None,2024-10-10 16h01.27.271528 +0530,
62,0,62,0,111.85212509999837,,111.76045999999769,10,111.85212509999837,111.85212509999837,0.05565220000062254,113.80830389999755,[-0.15333333333333332],[0.3616666666666667],[1],[0],[0],[1.9926411999986158],['target'],567548,001,2024-10-10_16h01.17.050,visual_search_exp,2024.1.5,None,2024-10-10 16h01.27.271528 +0530,
63,0,63,0,113.87116500000047,,113.81457450000016,5,113.87116500000047,113.87116500000047,0.028696400000626454,115.52724039999885,[-0.085],[-0.19166666666666668],[1],[0],[0],[1.6844969999983732],['target'],567548,001,2024-10-10_16h01.17.050,visual_search_exp,2024.1.5,None,2024-10-10 16h01.27.271528 +0530,
64,0,64,0,115.62341240000023,,115.5331961999982,10,115.62341240000023,115.62341240000023,0.05331149999983609,117.12642229999983,[-0.38],[-0.06833333333333333],[1],[0],[0],[1.540580200002296],['target'],567548,001,2024-10-10_16h01.17.050,visual_search_exp,2024.1.5,None,2024-10-10 16h01.27.271528 +0530,
65,0,65,0,117.1912889999985,,117.13314089999767,5,117.1912889999985,117.1912889999985,0.03062130000034813,119.0653648999978,[-0.035],[-0.3516666666666667],[1],[0],[0],[1.9027722999999241],['target'],567548,001,2024-10-10_16h01.17.050,visual_search_exp,2024.1.5,None,2024-10-10 16h01.27.271528 +0530,
66,0,66,0,119.14292149999892,,119.0711169999995,10,119.14292149999892,119.14292149999892,0.053122900000744266,121.0150023999995,[0.25833333333333336],[0.4],[1],[0],[0],[1.8913180000017746],['target'],567548,001,2024-10-10_16h01.17.050,visual_search_exp,2024.1.5,None,2024-10-10 16h01.27.271528 +0530,
67,0,67,0,121.11154479999823,,121.02120789999753,10,121.11154479999823,121.11154479999823,0.055585900001460686,121.9486270999987,[0.38666666666666666],[0.335],[1],[0],[0],[0.8724731999973301],['target'],567548,001,2024-10-10_16h01.17.050,visual_search_exp,2024.1.5,None,2024-10-10 16h01.27.271528 +0530,
68,0,68,0,122.02999119999731,,121.95455109999966,10,122.02999119999731,122.02999119999731,0.05515920000107144,123.56686139999874,[0.4083333333333333],[0.0016666666666666668],[1],[0],[0],[1.5576686999993399],['target'],567548,001,2024-10-10_16h01.17.050,visual_search_exp,2024.1.5,None,2024-10-10 16h01.27.271528 +0530,
69,0,69,0,123.68098869999812,,123.57652980000057,10,123.68098869999812,123.68098869999812,0.07494769999902928,124.7197516999986,[0.4583333333333333],[0.23833333333333334],[1],[0],[0],[1.069672100002208],['target'],567548,001,2024-10-10_16h01.17.050,visual_search_exp,2024.1.5,None,2024-10-10 16h01.27.271528 +0530,
70,0,70,0,124.78327960000024,,124.72573869999906,5,124.78327960000024,124.78327960000024,0.03163899999708519,126.2701945000008,[0.20833333333333334],[0.24833333333333332],[1],[0],[0],[1.5134577000026184],['target'],567548,001,2024-10-10_16h01.17.050,visual_search_exp,2024.1.5,None,2024-10-10 16h01.27.271528 +0530,
71,0,71,0,126.33423140000014,,126.28000419999807,5,126.33423140000014,126.33423140000014,0.04242629999862402,127.83876099999907,[0.3933333333333333],[0.36833333333333335],[1],[0],[0],[1.517893299998832],['target'],567548,001,2024-10-10_16h01.17.050,visual_search_exp,2024.1.5,None,2024-10-10 16h01.27.271528 +0530,
72,0,72,0,127.90248910000082,,127.84444009999788,5,127.90248910000082,127.90248910000082,0.02919829999882495,129.19087740000032,[0.46166666666666667],[-0.19],[1],[0],[0],[1.317887500001234],['target'],567548,001,2024-10-10_16h01.17.050,visual_search_exp,2024.1.5,None,2024-10-10 16h01.27.271528 +0530,
73,0,73,0,129.2705105999994,,129.19667059999847,10,129.2705105999994,129.2705105999994,0.05473569999958272,131.7594121000002,[-0.2866666666666667],[-0.47],[1],[0],[0],[2.508537300000171],['target'],567548,001,2024-10-10_16h01.17.050,visual_search_exp,2024.1.5,None,2024-10-10 16h01.27.271528 +0530,
74,0,74,0,131.82373240000015,,131.76669709999987,5,131.82373240000015,131.82373240000015,0.03502840000146534,132.99624720000065,[-0.008333333333333333],[0.4633333333333333],[1],[0],[0],[1.1956551000002946],['target'],567548,001,2024-10-10_16h01.17.050,visual_search_exp,2024.1.5,None,2024-10-10 16h01.27.271528 +0530,
75,0,75,0,133.0586650999976,,133.00208199999906,5,133.0586650999976,133.0586650999976,0.03013199999986682,135.36380279999867,[0.4266666666666667],[0.45666666666666667],[1],[0],[0],[2.33227529999931],['target'],567548,001,2024-10-10_16h01.17.050,visual_search_exp,2024.1.5,None,2024-10-10 16h01.27.271528 +0530,
76,0,76,0,135.44449629999872,,135.3694676999985,10,135.44449629999872,135.44449629999872,0.056026899997959845,136.7812214000005,[0.3983333333333333],[0.23666666666666666],[1],[0],[0],[1.3562937999995484],['target'],567548,001,2024-10-10_16h01.17.050,visual_search_exp,2024.1.5,None,2024-10-10 16h01.27.271528 +0530,
77,0,77,0,136.82934150000074,,136.7870781999991,5,136.82934150000074,136.82934150000074,0.02917399999932968,138.4353435999983,[-0.013333333333333334],[-0.43666666666666665],[1],[0],[0],[1.6196031999970728],['target'],567548,001,2024-10-10_16h01.17.050,visual_search_exp,2024.1.5,None,2024-10-10 16h01.27.271528 +0530,
78,0,78,0,138.53147360000003,,138.4413926999987,10,138.53147360000003,138.53147360000003,0.05686530000093626,139.8020178000006,[0.195],[-0.3566666666666667],[1],[0],[0],[1.3044660999985354],['target'],567548,001,2024-10-10_16h01.17.050,visual_search_exp,2024.1.5,None,2024-10-10 16h01.27.271528 +0530,
79,0,79,0,139.89893069999744,,139.80804269999862,10,139.89893069999744,139.89893069999744,0.056314400000701426,142.47107229999892,[-0.31],[0.30333333333333334],[1],[0],[0],[2.6073507000000973],['target'],567548,001,2024-10-10_16h01.17.050,visual_search_exp,2024.1.5,None,2024-10-10 16h01.27.271528 +0530,
80,0,80,0,142.5685037000003,,142.4769840000008,10,142.5685037000003,142.5685037000003,0.05440869999802089,144.556999299999,[0.32],[-0.4766666666666667],[1],[0],[0],[2.026057799997943],['target'],567548,001,2024-10-10_16h01.17.050,visual_search_exp,2024.1.5,None,2024-10-10 16h01.27.271528 +0530,
81,0,81,0,144.65426429999934,,144.56324219999806,10,144.65426429999934,144.65426429999934,0.06459159999940312,146.39149619999807,[0.12],[-0.21666666666666667],[1],[0],[0],[1.7643873999986681],['target'],567548,001,2024-10-10_16h01.17.050,visual_search_exp,2024.1.5,None,2024-10-10 16h01.27.271528 +0530,
82,0,82,0,146.47323049999977,,146.3973675999987,10,146.47323049999977,146.47323049999977,0.05589890000192099,148.0434241999974,[-0.345],[0.18833333333333332],[1],[0],[0],[1.5908474999996542],['target'],567548,001,2024-10-10_16h01.17.050,visual_search_exp,2024.1.5,None,2024-10-10 16h01.27.271528 +0530,
83,0,83,0,148.14110710000023,,148.04937349999818,10,148.14110710000023,148.14110710000023,0.05853739999656682,150.01272889999746,[0.23833333333333334],[0.4716666666666667],[1],[0],[0],[1.905427800000325],['target'],567548,001,2024-10-10_16h01.17.050,visual_search_exp,2024.1.5,None,2024-10-10 16h01.27.271528 +0530,
84,0,84,0,150.0938341000001,,150.01867429999766,10,150.0938341000001,150.0938341000001,0.054511899998033186,151.89828699999998,[0.49],[-0.058333333333333334],[1],[0],[0],[1.8257334000008996],['target'],567548,001,2024-10-10_16h01.17.050,visual_search_exp,2024.1.5,None,2024-10-10 16h01.27.271528 +0530,
85,0,85,0,151.9630464999973,,151.90447569999742,5,151.9630464999973,151.9630464999973,0.0286880999992718,153.38403760000074,[0.4716666666666667],[0.36333333333333334],[1],[0],[0],[1.451504999997269],['target'],567548,001,2024-10-10_16h01.17.050,visual_search_exp,2024.1.5,None,2024-10-10 16h01.27.271528 +0530,
86,0,86,0,153.44704329999877,,153.3898713999988,5,153.44704329999877,153.44704329999877,0.027312899997923523,154.81847689999995,[-0.055],[0.13333333333333333],[1],[0],[0],[1.4017153999993752],['target'],567548,001,2024-10-10_16h01.17.050,visual_search_exp,2024.1.5,None,2024-10-10 16h01.27.271528 +0530,
87,0,87,0,154.86582849999832,,154.82422699999734,5,154.86582849999832,154.86582849999832,0.02801539999927627,156.10306320000018,[0.235],[0.0033333333333333335],[1],[0],[0],[1.2514317999994091],['target'],567548,001,2024-10-10_16h01.17.050,visual_search_exp,2024.1.5,None,2024-10-10 16h01.27.271528 +0530,
88,0,88,0,156.2000569999982,,156.1129218999995,10,156.2000569999982,156.2000569999982,0.0668260000020382,157.33611820000078,[0.43666666666666665],[0.2866666666666667],[1],[0],[0],[1.1577930999992532],['target'],567548,001,2024-10-10_16h01.17.050,visual_search_exp,2024.1.5,None,2024-10-10 16h01.27.271528 +0530,
89,0,89,0,157.40125529999932,,157.3431189999974,5,157.40125529999932,157.40125529999932,0.031248100000084378,159.0067339999987,[0.06333333333333334],[-0.47],[1],[0],[0],[1.6330669999988459],['target'],567548,001,2024-10-10_16h01.17.050,visual_search_exp,2024.1.5,None,2024-10-10 16h01.27.271528 +0530,
90,0,90,0,159.10316429999875,,159.01262339999812,10,159.10316429999875,159.10316429999875,0.05676060000041616,160.14115859999947,[0.36666666666666664],[0.03166666666666667],[1],[0],[0],[1.07231899999897],['target'],567548,001,2024-10-10_16h01.17.050,visual_search_exp,2024.1.5,None,2024-10-10 16h01.27.271528 +0530,
91,0,91,0,160.2051474,,160.1472584999974,5,160.2051474,160.2051474,0.029206899998825975,161.05987219999952,[0.23666666666666666],[-0.16333333333333333],[1],[0],[0],[0.884073699999135],['target'],567548,001,2024-10-10_16h01.17.050,visual_search_exp,2024.1.5,None,2024-10-10 16h01.27.271528 +0530,
92,0,92,0,161.1554819999983,,161.0657754999993,10,161.1554819999983,161.1554819999983,0.05688869999721646,162.59303240000008,[-0.41833333333333333],[-0.18],[1],[0],[0],[1.4710024999985762],['target'],567548,001,2024-10-10_16h01.17.050,visual_search_exp,2024.1.5,None,2024-10-10 16h01.27.271528 +0530,
93,0,93,0,162.65734370000064,,162.5989140999991,5,162.65734370000064,162.65734370000064,0.03091350000249804,164.37919989999864,[0.3616666666666667],[0.29],[1],[0],[0],[1.7499422999972012],['target'],567548,001,2024-10-10_16h01.17.050,visual_search_exp,2024.1.5,None,2024-10-10 16h01.27.271528 +0530,
94,0,94,0,164.4424184999989,,164.38545800000065,5,164.4424184999989,164.4424184999989,0.029400399998849025,165.51290209999934,[0.33],[0.025],[1],[0],[0],[1.098776499999076],['target'],567548,001,2024-10-10_16h01.17.050,visual_search_exp,2024.1.5,None,2024-10-10 16h01.27.271528 +0530,
95,0,95,0,165.56092879999778,,165.51879299999928,5,165.56092879999778,165.56092879999778,0.02782619999925373,166.6153443000003,[0.435],[0.265],[1],[0],[0],[1.0692267999984324],['target'],567548,001,2024-10-10_16h01.17.050,visual_search_exp,2024.1.5,None,2024-10-10 16h01.27.271528 +0530,
96,0,96,0,166.71165479999763,,166.62672939999902,10,166.71165479999763,166.71165479999763,0.0560879999975441,168.28158749999784,[0.03166666666666667],[-0.3283333333333333],[1],[0],[0],[1.6007223000015074],['target'],567548,001,2024-10-10_16h01.17.050,visual_search_exp,2024.1.5,None,2024-10-10 16h01.27.271528 +0530,
97,0,97,0,168.3470774999987,,168.28750509999736,5,168.3470774999987,168.3470774999987,0.029708699999901,169.7679719000007,[-0.0016666666666666668],[-0.325],[1],[0],[0],[1.451430100001744],['target'],567548,001,2024-10-10_16h01.17.050,visual_search_exp,2024.1.5,None,2024-10-10 16h01.27.271528 +0530,
98,0,98,0,169.84911739999734,,169.77378680000038,10,169.84911739999734,169.84911739999734,0.05491439999968861,171.48551079999743,[-0.37833333333333335],[-0.021666666666666667],[1],[0],[0],[1.657506999999896],['target'],567548,001,2024-10-10_16h01.17.050,visual_search_exp,2024.1.5,None,2024-10-10 16h01.27.271528 +0530,
99,0,99,0,171.55078439999852,,171.49136279999948,5,171.55078439999852,171.55078439999852,0.0306230999995023,173.4561520999996,[-0.07333333333333333],[-0.18666666666666668],[1],[0],[0],[1.934731000001193],['target'],567548,001,2024-10-10_16h01.17.050,visual_search_exp,2024.1.5,None,2024-10-10 16h01.27.271528 +0530,
100,0,100,0,173.5194440999985,,173.46250679999866,5,173.5194440999985,173.5194440999985,0.029637200001161546,175.35866560000068,[-0.44166666666666665],[0.37666666666666665],[1],[0],[0],[1.866947300000902],['target'],567548,001,2024-10-10_16h01.17.050,visual_search_exp,2024.1.5,None,2024-10-10 16h01.27.271528 +0530,
101,0,101,0,175.4546526999984,,175.3661546000003,10,175.4546526999984,175.4546526999984,0.05773330000010901,176.72479589999784,[0.2966666666666667],[0.465],[1],[0],[0],[1.3017204999996466],['target'],567548,001,2024-10-10_16h01.17.050,visual_search_exp,2024.1.5,None,2024-10-10 16h01.27.271528 +0530,
102,0,102,0,176.80560889999833,,176.73072909999973,10,176.80560889999833,176.80560889999833,0.05166779999854043,178.52795780000088,[-0.435],[-0.46166666666666667],[1],[0],[0],[1.7460637000003771],['target'],567548,001,2024-10-10_16h01.17.050,visual_search_exp,2024.1.5,None,2024-10-10 16h01.27.271528 +0530,
103,0,103,0,178.6420431000006,,178.53772129999925,10,178.6420431000006,178.6420431000006,0.08449649999965914,180.96314089999942,[0.4],[-0.195],[1],[0],[0],[2.3424822999986645],['target'],567548,001,2024-10-10_16h01.17.050,visual_search_exp,2024.1.5,None,2024-10-10 16h01.27.271528 +0530,
104,0,104,0,181.0276152999977,,180.9691903999992,5,181.0276152999977,181.0276152999977,0.026739500000985572,182.28374899999835,[-0.36],[0.41],[1],[0],[0],[1.2884163000016997],['target'],567548,001,2024-10-10_16h01.17.050,visual_search_exp,2024.1.5,None,2024-10-10 16h01.27.271528 +0530,
105,0,105,0,182.3459817999974,,182.28961060000074,5,182.3459817999974,182.3459817999974,0.028640500000619795,183.86726389999967,[0.48833333333333334],[0.021666666666666667],[1],[0],[0],[1.5496314000010898],['target'],567548,001,2024-10-10_16h01.17.050,visual_search_exp,2024.1.5,None,2024-10-10 16h01.27.271528 +0530,
106,0,106,0,183.96432819999973,,183.8735921999978,10,183.96432819999973,183.96432819999973,0.05539219999991474,184.73430949999965,[0.03833333333333333],[0.21833333333333332],[1],[0],[0],[0.8057565000017348],['target'],567548,001,2024-10-10_16h01.17.050,visual_search_exp,2024.1.5,None,2024-10-10 16h01.27.271528 +0530,
107,0,107,0,184.8312823999986,,184.74047869999777,10,184.8312823999986,184.8312823999986,0.06061039999985951,186.36940709999908,[0.095],[0.44166666666666665],[1],[0],[0],[1.5688840000002529],['target'],567548,001,2024-10-10_16h01.17.050,visual_search_exp,2024.1.5,None,2024-10-10 16h01.27.271528 +0530,
108,0,108,0,186.41680730000007,,186.37530569999944,5,186.41680730000007,186.41680730000007,0.028851899998699082,187.88785409999764,[0.27],[-0.265],[1],[0],[0],[1.4843541000009282],['target'],567548,001,2024-10-10_16h01.17.050,visual_search_exp,2024.1.5,None,2024-10-10 16h01.27.271528 +0530,
109,0,109,0,187.93538089999856,,187.89364379999824,5,187.93538089999856,187.93538089999856,0.02924189999976079,189.27248319999853,[0.26666666666666666],[0.34833333333333333],[1],[0],[0],[1.3502133000001777],['target'],567548,001,2024-10-10_16h01.17.050,visual_search_exp,2024.1.5,None,2024-10-10 16h01.27.271528 +0530,
110,0,110,0,189.3192154999997,,189.27837259999797,5,189.3192154999997,189.3192154999997,0.027905599999940023,190.3575724000002,[-0.03833333333333333],[0.3016666666666667],[1],[0],[0],[1.0518422999994073],['target'],567548,001,2024-10-10_16h01.17.050,visual_search_exp,2024.1.5,None,2024-10-10 16h01.27.271528 +0530,
111,0,111,0,190.4542892999998,,190.36356729999898,10,190.4542892999998,190.4542892999998,0.058702800000901334,191.9587148999999,[-0.195],[-0.405],[1],[0],[0],[1.5371817000013834],['target'],567548,001,2024-10-10_16h01.17.050,visual_search_exp,2024.1.5,None,2024-10-10 16h01.27.271528 +0530,
112,0,112,0,192.0556848999986,,191.96462640000027,10,192.0556848999986,192.0556848999986,0.05677830000058748,193.32753369999773,[0.22666666666666666],[-0.12833333333333333],[1],[0],[0],[1.3067550999985542],['target'],567548,001,2024-10-10_16h01.17.050,visual_search_exp,2024.1.5,None,2024-10-10 16h01.27.271528 +0530,
113,0,113,0,193.42509860000064,,193.33342819999962,10,193.42509860000064,193.42509860000064,0.056576200000563404,196.3629062,[-0.45],[0.48],[1],[0],[0],[2.9736052000007476],['target'],567548,001,2024-10-10_16h01.17.050,visual_search_exp,2024.1.5,None,2024-10-10 16h01.27.271528 +0530,
114,0,114,0,196.4280289999988,,196.3688349999975,5,196.4280289999988,196.4280289999988,0.03378050000173971,197.88192779999736,[-0.03166666666666667],[-0.375],[1],[0],[0],[1.4799251000004006],['target'],567548,001,2024-10-10_16h01.17.050,visual_search_exp,2024.1.5,None,2024-10-10 16h01.27.271528 +0530,
115,0,115,0,197.92954119999922,,197.8878741999979,5,197.92954119999922,197.92954119999922,0.028955199999472825,199.5005060000003,[-0.5016666666666667],[-0.205],[1],[0],[0],[1.5843013000012434],['target'],567548,001,2024-10-10_16h01.17.050,visual_search_exp,2024.1.5,None,2024-10-10 16h01.27.271528 +0530,
116,0,116,0,199.54827429999932,,199.50628209999923,5,199.54827429999932,199.54827429999932,0.027621799999906216,200.48597329999757,[-0.10166666666666667],[0.045],[1],[0],[0],[0.9526740000001155],['target'],567548,001,2024-10-10_16h01.17.050,visual_search_exp,2024.1.5,None,2024-10-10 16h01.27.271528 +0530,
117,0,117,0,200.58190990000003,,200.49166970000078,10,200.58190990000003,200.58190990000003,0.05867999999827589,202.0193263000001,[0.27666666666666667],[-0.4033333333333333],[1],[0],[0],[1.4696279999989201],['target'],567548,001,2024-10-10_16h01.17.050,visual_search_exp,2024.1.5,None,2024-10-10 16h01.27.271528 +0530,
118,0,118,0,202.11673859999792,,202.0253073999993,10,202.11673859999792,202.11673859999792,0.058762900000147056,203.1873904999993,[0.20666666666666667],[-0.43],[1],[0],[0],[1.103996999998344],['target'],567548,001,2024-10-10_16h01.17.050,visual_search_exp,2024.1.5,None,2024-10-10 16h01.27.271528 +0530,
119,0,119,0,203.25215359999856,,203.19362550000005,5,203.25215359999856,203.25215359999856,0.028940899999724934,204.4559432999995,[-0.023333333333333334],[-0.041666666666666664],[1],[0],[0],[1.2340035000015632],['target'],567548,001,2024-10-10_16h01.17.050,visual_search_exp,2024.1.5,None,2024-10-10 16h01.27.271528 +0530,
120,0,120,0,204.53625749999992,,204.46248249999917,10,204.53625749999992,204.53625749999992,0.05568990000028862,206.17366649999894,[0.23666666666666666],[0.06166666666666667],[1],[0],[0],[1.656200200002786],['target'],567548,001,2024-10-10_16h01.17.050,visual_search_exp,2024.1.5,None,2024-10-10 16h01.27.271528 +0530,
121,0,121,0,206.27203919999738,,206.17952549999973,10,206.27203919999738,206.27203919999738,0.05806700000175624,207.77690710000024,[0.40166666666666667],[0.38333333333333336],[1],[0],[0],[1.5399872999987565],['target'],567548,001,2024-10-10_16h01.17.050,visual_search_exp,2024.1.5,None,2024-10-10 16h01.27.271528 +0530,
122,0,122,0,207.87324029999945,,207.78276489999917,10,207.87324029999945,207.87324029999945,0.055641999999352265,210.31278609999936,[-0.17],[-0.07666666666666666],[1],[0],[0],[2.474932799999806],['target'],567548,001,2024-10-10_16h01.17.050,visual_search_exp,2024.1.5,None,2024-10-10 16h01.27.271528 +0530,
123,0,123,0,210.40968839999914,,210.31900099999984,10,210.40968839999914,210.40968839999914,0.05581719999827328,212.0641328999991,[-0.405],[0.02],[1],[0],[0],[1.6899644000004628],['target'],567548,001,2024-10-10_16h01.17.050,visual_search_exp,2024.1.5,None,2024-10-10 16h01.27.271528 +0530,
124,0,124,0,212.16104160000032,,212.07113799999934,10,212.16104160000032,212.16104160000032,0.06477470000027097,214.14955349999946,[0.355],[-0.24833333333333332],[1],[0],[0],[2.014473800001724],['target'],567548,001,2024-10-10_16h01.17.050,visual_search_exp,2024.1.5,None,2024-10-10 16h01.27.271528 +0530,
125,0,125,0,214.21420020000005,,214.15538949999973,5,214.21420020000005,214.21420020000005,0.030962500000896398,215.76868839999952,[-0.355],[0.25333333333333335],[1],[0],[0],[1.5830079000006663],['target'],567548,001,2024-10-10_16h01.17.050,visual_search_exp,2024.1.5,None,2024-10-10 16h01.27.271528 +0530,
126,0,126,0,215.83244639999975,,215.77442599999995,5,215.83244639999975,215.83244639999975,0.028802500000892906,216.66941339999903,[-0.08166666666666667],[0.24333333333333335],[1],[0],[0],[0.8666656999994302],['target'],567548,001,2024-10-10_16h01.17.050,visual_search_exp,2024.1.5,None,2024-10-10 16h01.27.271528 +0530,
127,0,127,0,216.7329056999988,,216.67537729999822,5,216.7329056999988,216.7329056999988,0.02838060000067344,217.90421810000043,[0.19833333333333333],[0.44],[1],[0],[0],[1.2010107999994943],['target'],567548,001,2024-10-10_16h01.17.050,visual_search_exp,2024.1.5,None,2024-10-10 16h01.27.271528 +0530,
128,0,128,0,218.0021921999978,,217.91020840000056,10,218.0021921999978,218.0021921999978,0.05806230000234791,219.0552201999999,[-0.43166666666666664],[0.49666666666666665],[1],[0],[0],[1.087632400001894],['target'],567548,001,2024-10-10_16h01.17.050,visual_search_exp,2024.1.5,None,2024-10-10 16h01.27.271528 +0530,
129,0,129,0,219.1369330999987,,219.0611761,10,219.1369330999987,219.1369330999987,0.05527300000176183,220.69030759999805,[-0.07],[-0.07333333333333333],[1],[0],[0],[1.5743819999988773],['target'],567548,001,2024-10-10_16h01.17.050,visual_search_exp,2024.1.5,None,2024-10-10 16h01.27.271528 +0530,
130,0,130,0,220.7874598999988,,220.6962590999974,10,220.7874598999988,220.7874598999988,0.05526629999803845,222.14331219999804,[0.14333333333333334],[-0.09166666666666666],[1],[0],[0],[1.3924074999995355],['target'],567548,001,2024-10-10_16h01.17.050,visual_search_exp,2024.1.5,None,2024-10-10 16h01.27.271528 +0530,
131,0,131,0,222.20700329999818,,222.1492392,5,222.20700329999818,222.20700329999818,0.030835600002319552,223.64542470000015,[-0.29833333333333334],[-0.13166666666666665],[1],[0],[0],[1.4657812000004924],['target'],567548,001,2024-10-10_16h01.17.050,visual_search_exp,2024.1.5,None,2024-10-10 16h01.27.271528 +0530,
132,0,132,0,223.74105249999775,,223.6512636999978,10,223.74105249999775,223.74105249999775,0.05780370000138646,225.3782085999992,[0.28],[-0.44666666666666666],[1],[0],[0],[1.669770000000426],['target'],567548,001,2024-10-10_16h01.17.050,visual_search_exp,2024.1.5,None,2024-10-10 16h01.27.271528 +0530,
133,0,133,0,225.4766071999984,,225.38434629999756,10,225.4766071999984,225.4766071999984,0.05811840000023949,227.56457989999763,[-0.015],[-0.31833333333333336],[1],[0],[0],[2.1228864999975485],['target'],567548,001,2024-10-10_16h01.17.050,visual_search_exp,2024.1.5,None,2024-10-10 16h01.27.271528 +0530,
134,0,134,0,227.62873119999858,,227.57073979999768,5,227.62873119999858,227.62873119999858,0.028096300000470364,228.88525599999775,[-0.22],[0.03666666666666667],[1],[0],[0],[1.2869872999981453],['target'],567548,001,2024-10-10_16h01.17.050,visual_search_exp,2024.1.5,None,2024-10-10 16h01.27.271528 +0530,
135,0,135,0,228.96350189999794,,228.8910122999987,10,228.96350189999794,228.96350189999794,0.05126319999908446,230.88512139999875,[0.46166666666666667],[0.37333333333333335],[1],[0],[0],[1.9434858999993594],['target'],567548,001,2024-10-10_16h01.17.050,visual_search_exp,2024.1.5,None,2024-10-10 16h01.27.271528 +0530,
136,0,136,0,230.9818099999975,,230.89101619999929,10,230.9818099999975,230.9818099999975,0.05616279999958351,232.77025270000013,[-0.15166666666666667],[0.21166666666666667],[1],[0],[0],[1.8236879000032786],['target'],567548,001,2024-10-10_16h01.17.050,visual_search_exp,2024.1.5,None,2024-10-10 16h01.27.271528 +0530,
137,0,137,0,232.81704519999766,,232.7763644000006,5,232.81704519999766,232.81704519999766,0.02843399999983376,235.29171669999778,[0.42833333333333334],[-0.4483333333333333],[1],[0],[0],[2.4874819999968167],['target'],567548,001,2024-10-10_16h01.17.050,visual_search_exp,2024.1.5,None,2024-10-10 16h01.27.271528 +0530,
138,0,138,0,235.38765469999998,,235.29744149999897,10,235.38765469999998,235.38765469999998,0.05191199999899254,237.02533480000056,[0.058333333333333334],[-0.33166666666666667],[1],[0],[0],[1.676609300000564],['target'],567548,001,2024-10-10_16h01.17.050,visual_search_exp,2024.1.5,None,2024-10-10 16h01.27.271528 +0530,
139,0,139,0,237.1220202000004,,237.03120829999898,10,237.1220202000004,237.1220202000004,0.05376629999955185,239.09417779999785,[-0.043333333333333335],[0.37166666666666665],[1],[0],[0],[2.009810200001084],['target'],567548,001,2024-10-10_16h01.17.050,visual_search_exp,2024.1.5,None,2024-10-10 16h01.27.271528 +0530,
140,0,140,0,239.1583537999977,,239.10027350000018,5,239.1583537999977,239.1583537999977,0.027561700000660494,241.2318841999986,[-0.27],[-0.26666666666666666],[1],[0],[0],[2.1044695999989926],['target'],567548,001,2024-10-10_16h01.17.050,visual_search_exp,2024.1.5,None,2024-10-10 16h01.27.271528 +0530,
141,0,141,0,241.32656339999812,,241.23801909999747,10,241.32656339999812,241.32656339999812,0.0546396999998251,242.7633833,[0.015],[0.11666666666666667],[1],[0],[0],[1.4715002000011737],['target'],567548,001,2024-10-10_16h01.17.050,visual_search_exp,2024.1.5,None,2024-10-10 16h01.27.271528 +0530,
142,0,142,0,242.86218889999873,,242.76930749999883,10,242.86218889999873,242.86218889999873,0.056704000002355315,244.03434249999918,[-0.4033333333333333],[-0.06666666666666667],[1],[0],[0],[1.2087800000008428],['target'],567548,001,2024-10-10_16h01.17.050,visual_search_exp,2024.1.5,None,2024-10-10 16h01.27.271528 +0530,
143,0,143,0,244.09674599999926,,244.04604059999838,5,244.09674599999926,244.09674599999926,0.037515299998631235,246.3177923000003,[-0.14833333333333334],[0.47],[1],[0],[0],[2.2363623999990523],['target'],567548,001,2024-10-10_16h01.17.050,visual_search_exp,2024.1.5,None,2024-10-10 16h01.27.271528 +0530,
144,0,144,0,246.44922419999784,,246.32758009999816,10,246.44922419999784,246.44922419999784,0.08034639999823412,248.15307299999768,[0.43166666666666664],[0.11666666666666667],[1],[0],[0],[1.7469111000027624],['target'],567548,001,2024-10-10_16h01.17.050,visual_search_exp,2024.1.5,None,2024-10-10 16h01.27.271528 +0530,
145,0,145,0,248.2173115000005,,248.15898430000016,5,248.2173115000005,248.2173115000005,0.02996780000103172,249.6391283999983,[-0.07833333333333334],[0.3283333333333333],[1],[0],[0],[1.4508603000031144],['target'],567548,001,2024-10-10_16h01.17.050,visual_search_exp,2024.1.5,None,2024-10-10 16h01.27.271528 +0530,
146,0,146,0,249.7023122999999,,249.6449791999985,5,249.7023122999999,249.7023122999999,0.02942559999792138,250.87344819999998,[-0.4],[0.465],[1],[0],[0],[1.1997228000000177],['target'],567548,001,2024-10-10_16h01.17.050,visual_search_exp,2024.1.5,None,2024-10-10 16h01.27.271528 +0530,
147,0,147,0,250.9209965000009,,250.87930960000085,5,250.9209965000009,250.9209965000009,0.02903340000193566,252.45949339999788,[0.34],[-0.215],[1],[0],[0],[1.551698100000067],['target'],567548,001,2024-10-10_16h01.17.050,visual_search_exp,2024.1.5,None,2024-10-10 16h01.27.271528 +0530,
148,0,148,0,252.5554607999984,,252.46534149999934,10,252.5554607999984,252.5554607999984,0.057033599998248974,254.92799469999954,[0.135],[-0.37166666666666665],[1],[0],[0],[2.406253099998139],['target'],567548,001,2024-10-10_16h01.17.050,visual_search_exp,2024.1.5,None,2024-10-10 16h01.27.271528 +0530,
149,0,149,0,254.97479969999767,,254.93391619999966,5,254.97479969999767,254.97479969999767,0.02667720000317786,256.9979652000002,[0.11333333333333333],[0.24833333333333332],[1],[0],[0],[2.037911299998086],['target'],567548,001,2024-10-10_16h01.17.050,visual_search_exp,2024.1.5,None,2024-10-10 16h01.27.271528 +0530,
150,0,150,0,257.0944686999974,,257.0040207999991,10,257.0944686999974,257.0944686999974,0.05557500000213622,258.43158459999904,[0.26],[0.38666666666666666],[1],[0],[0],[1.3726982999978645],['target'],567548,001,2024-10-10_16h01.17.050,visual_search_exp,2024.1.5,None,2024-10-10 16h01.27.271528 +0530,
151,0,151,0,258.49504709999746,,258.43744929999957,5,258.49504709999746,258.49504709999746,0.030005000000528526,259.7511272999982,[-0.17],[0.395],[1],[0],[0],[1.284274400000868],['target'],567548,001,2024-10-10_16h01.17.050,visual_search_exp,2024.1.5,None,2024-10-10 16h01.27.271528 +0530,
152,0,152,0,259.8137925999981,,259.7569307999984,5,259.8137925999981,259.8137925999981,0.02732100000139326,261.8352522999994,[0.36333333333333334],[0.2916666666666667],[1],[0],[0],[2.051667499999894],['target'],567548,001,2024-10-10_16h01.17.050,visual_search_exp,2024.1.5,None,2024-10-10 16h01.27.271528 +0530,
153,0,153,0,261.8829517999984,,261.84104379999917,5,261.8829517999984,261.8829517999984,0.02982989999873098,263.22024939999756,[-0.29333333333333333],[-0.03333333333333333],[1],[0],[0],[1.3500585000001593],['target'],567548,001,2024-10-10_16h01.17.050,visual_search_exp,2024.1.5,None,2024-10-10 16h01.27.271528 +0530,
154,0,154,0,263.3172625999978,,263.2261112999986,10,263.3172625999978,263.3172625999978,0.055719300002238015,264.62161259999993,[-0.31666666666666665],[0.4],[1],[0],[0],[1.3403708999976516],['target'],567548,001,2024-10-10_16h01.17.050,visual_search_exp,2024.1.5,None,2024-10-10 16h01.27.271528 +0530,
155,0,155,0,264.71958209999866,,264.62769689999914,10,264.71958209999866,264.71958209999866,0.053345799999078736,266.155945399998,[-0.195],[0.27],[1],[0],[0],[1.475626999999804],['target'],567548,001,2024-10-10_16h01.17.050,visual_search_exp,2024.1.5,None,2024-10-10 16h01.27.271528 +0530,
156,0,156,0,266.2212565000009,,266.1618378999992,5,266.2212565000009,266.2212565000009,0.02936220000265166,267.508180599998,[0.5],[0.19],[1],[0],[0],[1.3175959000000148],['target'],567548,001,2024-10-10_16h01.17.050,visual_search_exp,2024.1.5,None,2024-10-10 16h01.27.271528 +0530,
157,0,157,0,267.58871969999745,,267.51402569999846,10,267.58871969999745,267.58871969999745,0.05095749999964028,269.0921481000005,[0.006666666666666667],[0.43],[1],[0],[0],[1.527962000000116],['target'],567548,001,2024-10-10_16h01.17.050,visual_search_exp,2024.1.5,None,2024-10-10 16h01.27.271528 +0530,
158,0,158,0,269.1903646999999,,269.0980488999994,10,269.1903646999999,269.1903646999999,0.058141100002103485,270.67807249999896,[0.4816666666666667],[-0.25166666666666665],[1],[0],[0],[1.5225035000003118],['target'],567548,001,2024-10-10_16h01.17.050,visual_search_exp,2024.1.5,None,2024-10-10 16h01.27.271528 +0530,
159,0,159,0,270.7753377000008,,270.6839555000006,10,270.7753377000008,270.7753377000008,0.05730070000208798,272.6797774000006,[0.008333333333333333],[-0.385],[1],[0],[0],[1.9391675000006217],['target'],567548,001,2024-10-10_16h01.17.050,visual_search_exp,2024.1.5,None,2024-10-10 16h01.27.271528 +0530,
160,0,160,0,272.7283110999997,,272.6857713999998,5,272.7283110999997,272.7283110999997,0.028974799999559764,274.03437029999986,[0.265],[0.16166666666666665],[1],[0],[0],[1.3202004000013403],['target'],567548,001,2024-10-10_16h01.17.050,visual_search_exp,2024.1.5,None,2024-10-10 16h01.27.271528 +0530,
161,0,161,0,274.1298014999993,,274.0403379999989,10,274.1298014999993,274.1298014999993,0.054538700002012774,275.46700879999844,[0.25],[-0.07833333333333334],[1],[0],[0],[1.3726848999976937],['target'],567548,001,2024-10-10_16h01.17.050,visual_search_exp,2024.1.5,None,2024-10-10 16h01.27.271528 +0530,
162,0,162,0,275.53079629999775,,275.473300499998,5,275.53079629999775,275.53079629999775,0.02978900000016438,276.6025343000001,[0.35333333333333333],[0.02666666666666667],[1],[0],[0],[1.1001340000002529],['target'],567548,001,2024-10-10_16h01.17.050,visual_search_exp,2024.1.5,None,2024-10-10 16h01.27.271528 +0530,
163,0,163,0,276.69859240000005,,276.6083574000004,10,276.69859240000005,276.69859240000005,0.056503200001316145,278.30281009999817,[-0.15166666666666667],[-0.12833333333333333],[1],[0],[0],[1.6384107999983826],['target'],567548,001,2024-10-10_16h01.17.050,visual_search_exp,2024.1.5,None,2024-10-10 16h01.27.271528 +0530,
164,0,164,0,278.4008866999975,,278.3085304999986,10,278.4008866999975,278.4008866999975,0.057671800001116935,280.8746911999988,[0.051666666666666666],[0.46166666666666667],[1],[0],[0],[2.508984899999632],['target'],567548,001,2024-10-10_16h01.17.050,visual_search_exp,2024.1.5,None,2024-10-10 16h01.27.271528 +0530,
165,0,165,0,280.9708169999976,,280.8806224,10,280.9708169999976,280.9708169999976,0.053742899999633664,282.5087643000006,[0.315],[0.265],[1],[0],[0],[1.574985100000049],['target'],567548,001,2024-10-10_16h01.17.050,visual_search_exp,2024.1.5,None,2024-10-10 16h01.27.271528 +0530,
166,0,166,0,282.57172549999814,,282.5149394,5,282.57172549999814,282.57172549999814,0.029320900001039263,284.07656679999855,[-0.018333333333333333],[-0.4033333333333333],[1],[0],[0],[1.5329626000020653],['target'],567548,001,2024-10-10_16h01.17.050,visual_search_exp,2024.1.5,None,2024-10-10 16h01.27.271528 +0530,
167,0,167,0,284.1399485000002,,284.08248319999984,5,284.1399485000002,284.1399485000002,0.030170299996825634,285.7122367999982,[0.415],[-0.20333333333333334],[1],[0],[0],[1.6001982999987376],['target'],567548,001,2024-10-10_16h01.17.050,visual_search_exp,2024.1.5,None,2024-10-10 16h01.27.271528 +0530,
168,0,168,0,285.8084597999987,,285.71811420000085,10,285.8084597999987,285.8084597999987,0.054893800002901116,286.9473289999987,[0.26166666666666666],[-0.395],[1],[0],[0],[1.1748025999986567],['target'],567548,001,2024-10-10_16h01.17.050,visual_search_exp,2024.1.5,None,2024-10-10 16h01.27.271528 +0530,
169,0,169,0,287.04349530000036,,286.9533769000009,10,287.04349530000036,287.04349530000036,0.05393710000134888,288.28106919999846,[-0.315],[-0.42333333333333334],[1],[0],[0],[1.2744008000008762],['target'],567548,001,2024-10-10_16h01.17.050,visual_search_exp,2024.1.5,None,2024-10-10 16h01.27.271528 +0530,
170,0,170,0,288.32805169999847,,288.28701329999967,5,288.32805169999847,288.32805169999847,0.02845560000059777,290.0673031000006,[-0.095],[0.02],[1],[0],[0],[1.7520915999994031],['target'],567548,001,2024-10-10_16h01.17.050,visual_search_exp,2024.1.5,None,2024-10-10 16h01.27.271528 +0530,
171,0,171,0,290.18040219999966,,290.0764047999983,10,290.18040219999966,290.18040219999966,0.07456900000033784,291.8704276999997,[-0.49666666666666665],[-0.0016666666666666668],[1],[0],[0],[1.7210049999994226],['target'],567548,001,2024-10-10_16h01.17.050,visual_search_exp,2024.1.5,None,2024-10-10 16h01.27.271528 +0530,
172,0,172,0,291.99849899999754,,291.88036160000047,10,291.99849899999754,291.99849899999754,0.09522519999882206,294.53957380000065,[-0.035],[0.08],[1],[0],[0],[2.565551100000448],['target'],567548,001,2024-10-10_16h01.17.050,visual_search_exp,2024.1.5,None,2024-10-10 16h01.27.271528 +0530,
173,0,173,0,294.66918369999985,,294.5518244999985,10,294.66918369999985,294.66918369999985,0.08817249999992782,296.7070500000009,[-0.03333333333333333],[-0.07833333333333334],[1],[0],[0],[2.0694451999988814],['target'],567548,001,2024-10-10_16h01.17.050,visual_search_exp,2024.1.5,None,2024-10-10 16h01.27.271528 +0530,
174,0,174,0,296.77111629999854,,296.71302769999966,5,296.77111629999854,296.77111629999854,0.029516599999624304,297.8753070999992,[0.16],[-0.29333333333333333],[1],[0],[0],[1.1334974999990663],['target'],567548,001,2024-10-10_16h01.17.050,visual_search_exp,2024.1.5,None,2024-10-10 16h01.27.271528 +0530,
175,0,175,0,297.97229999999763,,297.8811026000003,10,297.97229999999763,297.97229999999763,0.056292900000698864,298.77490789999865,[0.105],[-0.10166666666666667],[1],[0],[0],[0.838193700001284],['target'],567548,001,2024-10-10_16h01.17.050,visual_search_exp,2024.1.5,None,2024-10-10 16h01.27.271528 +0530,
176,0,176,0,298.8225655999995,,298.78079140000045,5,298.8225655999995,298.8225655999995,0.029473100003087893,300.1452544999993,[-0.27666666666666667],[-0.3516666666666667],[1],[0],[0],[1.3356648000008136],['target'],567548,001,2024-10-10_16h01.17.050,visual_search_exp,2024.1.5,None,2024-10-10 16h01.27.271528 +0530,
177,0,177,0,300.24058890000015,,300.1509710999999,10,300.24058890000015,300.24058890000015,0.05551839999679942,301.8787176000005,[-0.03166666666666667],[-0.04],[1],[0],[0],[1.6727052000023832],['target'],567548,001,2024-10-10_16h01.17.050,visual_search_exp,2024.1.5,None,2024-10-10 16h01.27.271528 +0530,
178,0,178,0,301.97742559999824,,301.8844079999981,10,301.97742559999824,301.97742559999824,0.056333900000026915,303.44822369999747,[0.013333333333333334],[-0.10666666666666667],[1],[0],[0],[1.5081146000011358],['target'],567548,001,2024-10-10_16h01.17.050,visual_search_exp,2024.1.5,None,2024-10-10 16h01.27.271528 +0530,
179,0,179,0,303.52846729999874,,303.45404789999884,10,303.52846729999874,303.52846729999874,0.054797900000266964,305.2006192999979,[-0.4483333333333333],[0.305],[1],[0],[0],[1.6923423999978695],['target'],567548,001,2024-10-10_16h01.17.050,visual_search_exp,2024.1.5,None,2024-10-10 16h01.27.271528 +0530,
180,0,180,0,305.26412039999923,,305.2068646000007,5,305.26412039999923,305.26412039999923,0.028345599999738624,306.5516859999989,[0.48333333333333334],[-0.04833333333333333],[1],[0],[0],[1.3171872999992047],['target'],567548,001,2024-10-10_16h01.17.050,visual_search_exp,2024.1.5,None,2024-10-10 16h01.27.271528 +0530,
181,0,181,0,306.6483206999983,,306.5577706999975,10,306.6483206999983,306.6483206999983,0.05327189999661641,308.2541435999992,[-0.45166666666666666],[-0.125],[1],[0],[0],[1.6436329999996815],['target'],567548,001,2024-10-10_16h01.17.050,visual_search_exp,2024.1.5,None,2024-10-10 16h01.27.271528 +0530,
182,0,182,0,308.3506019999986,,308.26141930000085,10,308.3506019999986,308.3506019999986,0.06430490000275313,310.85656649999873,[0.48833333333333334],[-0.3616666666666667],[1],[0],[0],[2.5314040999983263],['target'],567548,001,2024-10-10_16h01.17.050,visual_search_exp,2024.1.5,None,2024-10-10 16h01.27.271528 +0530,
183,0,183,0,310.9525556999979,,310.86798759999874,10,310.9525556999979,310.9525556999979,0.06451469999956316,313.34086279999974,[0.041666666666666664],[-0.225],[1],[0],[0],[2.4104326000015135],['target'],567548,001,2024-10-10_16h01.17.050,visual_search_exp,2024.1.5,None,2024-10-10 16h01.27.271528 +0530,
184,0,184,0,313.3886609000001,,313.346682899999,5,313.3886609000001,313.3886609000001,0.027551700000913115,314.44358609999836,[0.26666666666666666],[-0.35333333333333333],[1],[0],[0],[1.070018300000811],['target'],567548,001,2024-10-10_16h01.17.050,visual_search_exp,2024.1.5,None,2024-10-10 16h01.27.271528 +0530,
185,0,185,0,314.5404020999995,,314.4494749999976,10,314.5404020999995,314.5404020999995,0.054901600000448525,315.57785420000073,[0.255],[-0.12333333333333334],[1],[0],[0],[1.0740526000008686],['target'],567548,001,2024-10-10_16h01.17.050,visual_search_exp,2024.1.5,None,2024-10-10 16h01.27.271528 +0530,
186,0,186,0,315.6418359999989,,315.5839386999978,5,315.6418359999989,315.6418359999989,0.02942069999699015,317.4132026999978,[-0.27166666666666667],[-0.06166666666666667],[1],[0],[0],[1.8004440999975486],['target'],567548,001,2024-10-10_16h01.17.050,visual_search_exp,2024.1.5,None,2024-10-10 16h01.27.271528 +0530,
187,0,187,0,317.47747700000036,,317.41932369999995,5,317.47747700000036,317.47747700000036,0.030002700001205085,318.64750229999845,[0.0],[0.2816666666666667],[1],[0],[0],[1.1989285999989079],['target'],567548,001,2024-10-10_16h01.17.050,visual_search_exp,2024.1.5,None,2024-10-10 16h01.27.271528 +0530,
188,0,188,0,318.72820149999825,,318.65326429999914,10,318.72820149999825,318.72820149999825,0.053974899998138426,321.16693499999747,[-0.195],[-0.14166666666666666],[1],[0],[0],[2.460383299996465],['target'],567548,001,2024-10-10_16h01.17.050,visual_search_exp,2024.1.5,None,2024-10-10 16h01.27.271528 +0530,
189,0,189,0,321.2311841999981,,321.1728101000008,5,321.2311841999981,321.2311841999981,0.02845540000271285,322.7032027999994,[-0.2633333333333333],[0.44666666666666666],[1],[0],[0],[1.5026080999996339],['target'],567548,001,2024-10-10_16h01.17.050,visual_search_exp,2024.1.5,None,2024-10-10 16h01.27.271528 +0530,
190,0,190,0,322.80004089999784,,322.7090332999978,10,322.80004089999784,322.80004089999784,0.055717399998684414,325.18825319999814,[0.018333333333333333],[-0.3933333333333333],[1],[0],[0],[2.4240979999995034],['target'],567548,001,2024-10-10_16h01.17.050,visual_search_exp,2024.1.5,None,2024-10-10 16h01.27.271528 +0530,
191,0,191,0,325.23500019999847,,325.1943159000002,5,325.23500019999847,325.23500019999847,0.027823299998999573,327.29148449999775,[-0.28],[-0.10166666666666667],[1],[0],[0],[2.069921800000884],['target'],567548,001,2024-10-10_16h01.17.050,visual_search_exp,2024.1.5,None,2024-10-10 16h01.27.271528 +0530,
192,0,192,0,327.3711508999986,,327.297224599999,10,327.3711508999986,327.3711508999986,0.05371190000005299,329.1430752999986,[0.125],[-0.18666666666666668],[1],[0],[0],[1.7928066000022227],['target'],567548,001,2024-10-10_16h01.17.050,visual_search_exp,2024.1.5,None,2024-10-10 16h01.27.271528 +0530,
193,0,193,0,329.23966609999843,,329.14901760000066,10,329.23966609999843,329.23966609999843,0.05684520000068005,330.40999440000087,[-0.15166666666666667],[-0.2],[1],[0],[0],[1.2045902999998361],['target'],567548,001,2024-10-10_16h01.17.050,visual_search_exp,2024.1.5,None,2024-10-10 16h01.27.271528 +0530,
194,0,194,0,330.4739109999973,,330.4158983999987,5,330.4739109999973,330.4739109999973,0.028368999999656808,332.22955399999773,[-0.115],[0.43],[1],[0],[0],[1.7858860999986064],['target'],567548,001,2024-10-10_16h01.17.050,visual_search_exp,2024.1.5,None,2024-10-10 16h01.27.271528 +0530,
195,0,195,0,332.27583980000054,,332.23562239999956,5,332.27583980000054,332.27583980000054,0.027634499998384854,333.8478286999998,[0.37833333333333335],[-0.12333333333333334],[1],[0],[0],[1.585338300003059],['target'],567548,001,2024-10-10_16h01.17.050,visual_search_exp,2024.1.5,None,2024-10-10 16h01.27.271528 +0530,
196,0,196,0,333.9287559000004,,333.8536628999973,10,333.9287559000004,333.9287559000004,0.055889100000058534,335.8668379999981,[-0.485],[-0.3383333333333333],[1],[0],[0],[1.9579201000015019],['target'],567548,001,2024-10-10_16h01.17.050,visual_search_exp,2024.1.5,None,2024-10-10 16h01.27.271528 +0530,
197,0,197,0,335.9307614999998,,335.87278049999804,5,335.9307614999998,335.9307614999998,0.029272299998410745,337.01825800000006,[-0.44333333333333336],[-0.30333333333333334],[1],[0],[0],[1.1168804000008095],['target'],567548,001,2024-10-10_16h01.17.050,visual_search_exp,2024.1.5,None,2024-10-10 16h01.27.271528 +0530,
198,0,198,0,337.06508199999735,,337.02410099999906,5,337.06508199999735,337.06508199999735,0.027631699998892145,338.8865487000003,[-0.24],[0.43833333333333335],[1],[0],[0],[1.8353763000013714],['target'],567548,001,2024-10-10_16h01.17.050,visual_search_exp,2024.1.5,None,2024-10-10 16h01.27.271528 +0530,
199,0,199,0,338.9334123000008,,338.89274509999814,5,338.9334123000008,338.9334123000008,0.02784820000306354,339.854634299998,[-0.13166666666666665],[0.38],[1],[0],[0],[0.9346135000014328],['target'],567548,001,2024-10-10_16h01.17.050,visual_search_exp,2024.1.5,None,2024-10-10 16h01.27.271528 +0530,
