stimulus,condition,corr_resp,trials.thisRepN,trials.thisTrialN,trials.thisN,trials.thisIndex,thisRow.t,notes,instructions.started,text_2.started,instructions.stopped,trial.started,fixation.started,text.started,key_resp.started,fixation.stopped,trial.stopped,key_resp.keys,key_resp.corr,key_resp.rt,key_resp.duration,thank_you.started,text_3.started,thank_you.stopped,participant,date,expName,psychopyVersion,frameRate,expStart,
,,,,,,,,,0.020339899929240346,0.0358946998603642,10.00183799979277,,,,,,,,,,,,,,dhriti,2024-12-02_14h33.01.218,solo_project,2024.1.5,None,2024-12-02 14h33.14.485840 +0530,
heritage  ,control,y,0,0,0,2,10.043876399984583,,,,,10.032871599774808,10.043876399984583,10.545535799814388,10.545535799814388,10.57848809985444,18.4964525999967,y,1,7.914608200080693,None,,,,dhriti,2024-12-02_14h33.01.218,solo_project,2024.1.5,None,2024-12-02 14h33.14.485840 +0530,
disluge,ccrl,n,0,1,1,27,18.520196999888867,,,,,18.499638699926436,18.520196999888867,19.02426189999096,19.02426189999096,19.02426189999096,19.91411399981007,n,1,0.8762555001303554,None,,,,dhriti,2024-12-02_14h33.01.218,solo_project,2024.1.5,None,2024-12-02 14h33.14.485840 +0530,
mifikary,ccrl,n,0,2,2,29,19.938774899812415,,,,,19.91536119999364,19.938774899812415,20.439193099969998,20.439193099969998,20.458394299959764,21.198474299861118,n,1,0.7366142999380827,None,,,,dhriti,2024-12-02_14h33.01.218,solo_project,2024.1.5,None,2024-12-02 14h33.14.485840 +0530,
saline  ,control,y,0,3,3,38,21.22324339998886,,,,,21.199673799797893,21.22324339998886,21.723901799879968,21.723901799879968,21.75755659979768,22.585902399849147,y,1,0.8491136999800801,None,,,,dhriti,2024-12-02_14h33.01.218,solo_project,2024.1.5,None,2024-12-02 14h33.14.485840 +0530,
reconal,ccrl,n,0,4,4,23,22.608239899855107,,,,,22.587140599964187,22.608239899855107,23.108850699849427,23.108850699849427,23.14202469983138,23.885051099816337,n,1,0.7489112999755889,None,,,,dhriti,2024-12-02_14h33.01.218,solo_project,2024.1.5,None,2024-12-02 14h33.14.485840 +0530,
retire  ,control,y,0,5,5,8,23.909532399848104,,,,,23.886298599885777,23.909532399848104,24.410201199818403,24.410201199818403,24.429424199974164,25.08926359983161,y,1,0.6765163999516517,None,,,,dhriti,2024-12-02_14h33.01.218,solo_project,2024.1.5,None,2024-12-02 14h33.14.485840 +0530,
consider  ,control,y,0,6,6,4,25.11097599985078,,,,,25.090536499861628,25.11097599985078,25.611411799909547,25.611411799909547,25.64506769995205,26.207053599879146,y,1,0.5774850999005139,None,,,,dhriti,2024-12-02_14h33.01.218,solo_project,2024.1.5,None,2024-12-02 14h33.14.485840 +0530,
removal  ,control,y,0,7,7,22,26.22808519983664,,,,,26.208315099822357,26.22808519983664,26.729364599799737,26.729364599799737,26.762937599793077,27.42195379990153,y,1,0.6853283999953419,None,,,,dhriti,2024-12-02_14h33.01.218,solo_project,2024.1.5,None,2024-12-02 14h33.14.485840 +0530,
insibate,ccrl,n,0,8,8,1,27.44701399980113,,,,,27.423190799774602,27.44701399980113,27.947458499809727,27.947458499809727,27.980873399879783,28.673750199843198,n,1,0.7186414999887347,None,,,,dhriti,2024-12-02_14h33.01.218,solo_project,2024.1.5,None,2024-12-02 14h33.14.485840 +0530,
conbicer,ccrl,n,0,9,9,5,28.698087699944153,,,,,28.67499479977414,28.698087699944153,29.198708599898964,29.198708599898964,29.231976099777967,29.945081199984998,n,1,0.726843100041151,None,,,,dhriti,2024-12-02_14h33.01.218,solo_project,2024.1.5,None,2024-12-02 14h33.14.485840 +0530,
rabigly,ccrl,n,0,10,10,19,29.966212400002405,,,,,29.94645889988169,29.966212400002405,30.467193099902943,30.467193099902943,30.500091599998996,31.05919859977439,n,1,0.5660308999940753,None,,,,dhriti,2024-12-02_14h33.01.218,solo_project,2024.1.5,None,2024-12-02 14h33.14.485840 +0530,
dispute  ,control,y,0,11,11,26,31.0843586998526,,,,,31.060411399928853,31.0843586998526,31.584678699960932,31.584678699960932,31.618096799822524,33.16459759999998,y,1,1.5735412000212818,None,,,,dhriti,2024-12-02_14h33.01.218,solo_project,2024.1.5,None,2024-12-02 14h33.14.485840 +0530,
bewoted,ccrl,n,0,12,12,21,33.186573799932376,,,,,33.16585329989903,33.186573799932376,33.68689489993267,33.68689489993267,33.720330899814144,34.52974769985303,n,1,0.8140310000162572,None,,,,dhriti,2024-12-02_14h33.01.218,solo_project,2024.1.5,None,2024-12-02 14h33.14.485840 +0530,
memory  ,control,y,0,13,13,14,34.55506259994581,,,,,34.530978799797595,34.55506259994581,35.055043399799615,35.055043399799615,35.08843279979192,35.91489289980382,y,1,0.8285743999294937,None,,,,dhriti,2024-12-02_14h33.01.218,solo_project,2024.1.5,None,2024-12-02 14h33.14.485840 +0530,
delahe,ccrl,n,0,14,14,13,35.93934569996782,,,,,35.91614869982004,35.93934569996782,36.43984949984588,36.43984949984588,36.45945589989424,37.132881899829954,n,1,0.6686966998968273,None,,,,dhriti,2024-12-02_14h33.01.218,solo_project,2024.1.5,None,2024-12-02 14h33.14.485840 +0530,
recile,ccrl,n,0,15,15,9,37.157546299975365,,,,,37.13410219992511,37.157546299975365,37.657996099907905,37.657996099907905,37.67682039993815,38.51740139978938,n,1,0.8484506998211145,None,,,,dhriti,2024-12-02_14h33.01.218,solo_project,2024.1.5,None,2024-12-02 14h33.14.485840 +0530,
helicage,ccrl,n,0,16,16,3,38.54235339979641,,,,,38.51862829993479,38.54235339979641,39.04284439980984,39.04284439980984,39.07644179998897,39.86884649982676,n,1,0.8074201999697834,None,,,,dhriti,2024-12-02_14h33.01.218,solo_project,2024.1.5,None,2024-12-02 14h33.14.485840 +0530,
quakity,ccrl,n,0,17,17,33,39.893737599952146,,,,,39.87039149994962,39.893737599952146,40.394287099828944,40.394287099828944,40.41356659983285,41.24067099997774,n,1,0.8440303998067975,None,,,,dhriti,2024-12-02_14h33.01.218,solo_project,2024.1.5,None,2024-12-02 14h33.14.485840 +0530,
policy  ,control,y,0,18,18,6,41.26198449986987,,,,,41.24240019987337,41.26198449986987,41.762508999789134,41.762508999789134,41.79587409994565,42.65946559980512,y,1,0.8797021000646055,None,,,,dhriti,2024-12-02_14h33.01.218,solo_project,2024.1.5,None,2024-12-02 14h33.14.485840 +0530,
potugar,ccrl,n,0,19,19,35,42.68257709988393,,,,,42.660813599824905,42.68257709988393,43.197290799813345,43.197290799813345,43.23058269987814,43.88974569994025,n,1,0.6614354001358151,None,,,,dhriti,2024-12-02_14h33.01.218,solo_project,2024.1.5,None,2024-12-02 14h33.14.485840 +0530,
density  ,control,y,0,20,20,10,43.914841999998316,,,,,43.89113339991309,43.914841999998316,44.41809559985995,44.41809559985995,44.41809559985995,45.26183729991317,y,1,0.8418855001218617,None,,,,dhriti,2024-12-02_14h33.01.218,solo_project,2024.1.5,None,2024-12-02 14h33.14.485840 +0530,
indicate  ,control,y,0,21,21,0,45.283047599950805,,,,,45.263105099787936,45.283047599950805,45.78349839989096,45.78349839989096,45.81714009982534,46.71251629991457,y,1,0.9274911999236792,None,,,,dhriti,2024-12-02_14h33.01.218,solo_project,2024.1.5,None,2024-12-02 14h33.14.485840 +0530,
numerical  ,control,y,0,22,22,36,46.73449780000374,,,,,46.713804999832064,46.73449780000374,47.235377999953926,47.235377999953926,47.25436879997142,47.94751869980246,y,1,0.7090536998584867,None,,,,dhriti,2024-12-02_14h33.01.218,solo_project,2024.1.5,None,2024-12-02 14h33.14.485840 +0530,
debate  ,control,y,0,23,23,12,47.96924079977907,,,,,47.94895469979383,47.96924079977907,48.46974659990519,48.46974659990519,48.48908009985462,49.17941409978084,y,1,0.7023370999377221,None,,,,dhriti,2024-12-02_14h33.01.218,solo_project,2024.1.5,None,2024-12-02 14h33.14.485840 +0530,
rapidly  ,control,y,0,24,24,18,49.203899499960244,,,,,49.180627199821174,49.203899499960244,49.70726879988797,49.70726879988797,49.70726879988797,50.44721559993923,y,1,0.7319198998156935,None,,,,dhriti,2024-12-02_14h33.01.218,solo_project,2024.1.5,None,2024-12-02 14h33.14.485840 +0530,
nunewical,ccrl,n,0,25,25,37,50.47224789997563,,,,,50.44845529994927,50.47224789997563,50.975033700000495,50.975033700000495,50.975033700000495,51.681686899857596,n,1,0.6873677000403404,None,,,,dhriti,2024-12-02_14h33.01.218,solo_project,2024.1.5,None,2024-12-02 14h33.14.485840 +0530,
denficy,ccrl,n,0,26,26,11,51.70663769985549,,,,,51.68291119998321,51.70663769985549,52.207144299987704,52.207144299987704,52.24048579996452,53.150282699847594,n,1,0.9275104999542236,None,,,,dhriti,2024-12-02_14h33.01.218,solo_project,2024.1.5,None,2024-12-02 14h33.14.485840 +0530,
beloved  ,control,y,0,27,27,20,53.174557799939066,,,,,53.15151989995502,53.174557799939066,53.67540849978104,53.67540849978104,53.70884479978122,54.506109199952334,y,1,0.7983049000613391,None,,,,dhriti,2024-12-02_14h33.01.218,solo_project,2024.1.5,None,2024-12-02 14h33.14.485840 +0530,
qualify  ,control,y,0,28,28,32,54.52568789990619,,,,,54.5079404998105,54.52568789990619,55.02701550000347,55.02701550000347,55.06025219988078,55.73713349993341,y,1,0.6990106999874115,None,,,,dhriti,2024-12-02_14h33.01.218,solo_project,2024.1.5,None,2024-12-02 14h33.14.485840 +0530,
provide  ,control,y,0,29,29,24,55.76098149991594,,,,,55.73837129981257,55.76098149991594,56.27796269999817,56.27796269999817,56.27796269999817,56.88764979992993,y,1,0.6011518000159413,None,,,,dhriti,2024-12-02_14h33.01.218,solo_project,2024.1.5,None,2024-12-02 14h33.14.485840 +0530,
coverage  ,control,y,0,30,30,30,56.91227899980731,,,,,56.88908909983002,56.91227899980731,57.4133095999714,57.4133095999714,57.44669219991192,58.138848799979314,y,1,0.7152002998627722,None,,,,dhriti,2024-12-02_14h33.01.218,solo_project,2024.1.5,None,2024-12-02 14h33.14.485840 +0530,
repifion,ccrl,n,0,31,31,17,58.16392179997638,,,,,58.14006739994511,58.16392179997638,58.664252299815416,58.664252299815416,58.69805009989068,59.42653099982999,n,1,0.7457000999711454,None,,,,dhriti,2024-12-02_14h33.01.218,solo_project,2024.1.5,None,2024-12-02 14h33.14.485840 +0530,
posity,ccrl,n,0,32,32,7,59.448446800000966,,,,,59.42778419982642,59.448446800000966,59.94894409994595,59.94894409994595,59.982431899989024,61.09210879984312,n,1,1.1092099000234157,None,,,,dhriti,2024-12-02_14h33.01.218,solo_project,2024.1.5,None,2024-12-02 14h33.14.485840 +0530,
cocewage,ccrl,n,0,33,33,31,61.11677429988049,,,,,61.09333359985612,61.11677429988049,61.62044079997577,61.62044079997577,61.62044079997577,62.30835979990661,n,1,0.677186599932611,None,,,,dhriti,2024-12-02_14h33.01.218,solo_project,2024.1.5,None,2024-12-02 14h33.14.485840 +0530,
samite,ccrl,n,0,34,34,39,62.334945999784395,,,,,62.309334999881685,62.334945999784395,62.83574319980107,62.83574319980107,62.86854820000008,63.72836869978346,n,1,0.8769557999912649,None,,,,dhriti,2024-12-02_14h33.01.218,solo_project,2024.1.5,None,2024-12-02 14h33.14.485840 +0530,
military  ,control,y,0,35,35,28,63.75299069983885,,,,,63.72963839978911,63.75299069983885,64.25645419978537,64.25645419978537,64.25645419978537,65.03298569982871,y,1,0.7597655998542905,None,,,,dhriti,2024-12-02_14h33.01.218,solo_project,2024.1.5,None,2024-12-02 14h33.14.485840 +0530,
menowy,ccrl,n,0,36,36,15,65.05445649987087,,,,,65.0347036998719,65.05445649987087,65.55508219986223,65.55508219986223,65.58858809992671,66.33107959991321,n,1,0.7611753998789936,None,,,,dhriti,2024-12-02_14h33.01.218,solo_project,2024.1.5,None,2024-12-02 14h33.14.485840 +0530,
religion  ,control,y,0,37,37,16,66.3559374997858,,,,,66.33254769979976,66.3559374997858,66.85923810000531,66.85923810000531,66.85923810000531,67.59938119980507,y,1,0.7322221999056637,None,,,,dhriti,2024-12-02_14h33.01.218,solo_project,2024.1.5,None,2024-12-02 14h33.14.485840 +0530,
probice,ccrl,n,0,38,38,25,67.62417039996944,,,,,67.60060699982569,67.62417039996944,68.12509519979358,68.12509519979358,68.15823029982857,68.85354609997012,n,1,0.7230779000092298,None,,,,dhriti,2024-12-02_14h33.01.218,solo_project,2024.1.5,None,2024-12-02 14h33.14.485840 +0530,
popular  ,control,y,0,39,39,34,68.87547209998593,,,,,68.85481609986164,68.87547209998593,69.37854789989069,69.37854789989069,69.37854789989069,70.51940529979765,y,1,1.137168499873951,None,,,,dhriti,2024-12-02_14h33.01.218,solo_project,2024.1.5,None,2024-12-02 14h33.14.485840 +0530,
,,,,,,,,,,,,,,,,,,,,,,70.52030589990318,70.54389469977468,75.52584179979749,dhriti,2024-12-02_14h33.01.218,solo_project,2024.1.5,None,2024-12-02 14h33.14.485840 +0530,
