pos,corr_resp,trials.thisRepN,trials.thisTrialN,trials.thisN,trials.thisIndex,trials_2.thisRepN,trials_2.thisTrialN,trials_2.thisN,trials_2.thisIndex,thisRow.t,notes,trial.started,fixation.started,line_1.started,line_2.started,line_3.started,line_4.started,fixation.stopped,probe.started,key_resp.started,trial.stopped,key_resp.keys,key_resp.corr,key_resp.rt,key_resp.duration,participant,session,date,expName,psychopyVersion,frameRate,expStart,
-50,x,0,0,0,0,,,,,0.04019890003837645,,0.02081929997075349,0.04019890003837645,1.0245989999966696,1.0245989999966696,1.0245989999966696,1.0245989999966696,1.0587269000243396,2.042552800034173,2.042552800034173,3.1414611999643967,x,1,0.9692996999947354,None,686082,001,2024-10-17_09h18.40.773,motor_sequence_learning_exp,2024.1.5,None,2024-10-17 09h18.48.572051 +0530,
150,v,0,1,1,1,,,,,3.1609579999931157,,3.1454382999800146,3.1609579999931157,4.161273600067943,4.161273600067943,4.161273600067943,4.161273600067943,4.194598600035533,5.1625703000463545,5.1625703000463545,5.67235490004532,v,1,0.5036350999725983,None,686082,001,2024-10-17_09h18.40.773,motor_sequence_learning_exp,2024.1.5,None,2024-10-17 09h18.48.572051 +0530,
50,c,0,2,2,2,,,,,5.696421800064854,,5.675066199968569,5.696421800064854,6.697451599990018,6.697451599990018,6.697451599990018,6.697451599990018,6.7307282000547275,7.698626499972306,7.698626499972306,8.208002500003204,c,1,0.5075608999468386,None,686082,001,2024-10-17_09h18.40.773,motor_sequence_learning_exp,2024.1.5,None,2024-10-17 09h18.48.572051 +0530,
-150,z,0,3,3,3,,,,,8.23254050000105,,8.210736499982886,8.23254050000105,9.233778199995868,9.233778199995868,9.233778199995868,9.233778199995868,9.267091099987738,10.234768599970266,10.234768599970266,10.710107499966398,z,1,0.4471748999785632,None,686082,001,2024-10-17_09h18.40.773,motor_sequence_learning_exp,2024.1.5,None,2024-10-17 09h18.48.572051 +0530,
-50,x,1,0,4,0,,,,,10.735199199989438,,10.712769399979152,10.735199199989438,11.736347199999727,11.736347199999727,11.736347199999727,11.736347199999727,11.769499900052324,12.737443699967116,12.737443699967116,13.147207000060007,x,1,0.39382360002491623,None,686082,001,2024-10-17_09h18.40.773,motor_sequence_learning_exp,2024.1.5,None,2024-10-17 09h18.48.572051 +0530,
150,v,1,1,5,1,,,,,13.171380199957639,,13.149781199987046,13.171380199957639,14.1724468000466,14.1724468000466,14.1724468000466,14.1724468000466,14.205762100056745,15.173600599984638,15.173600599984638,15.64944499998819,v,1,0.47398509993217885,None,686082,001,2024-10-17_09h18.40.773,motor_sequence_learning_exp,2024.1.5,None,2024-10-17 09h18.48.572051 +0530,
50,c,1,2,6,2,,,,,15.673983599990606,,15.65217220003251,15.673983599990606,16.675427700043656,16.675427700043656,16.675427700043656,16.675427700043656,16.708266300032847,17.67629760003183,17.67629760003183,18.15199509996455,c,1,0.4568975999718532,None,686082,001,2024-10-17_09h18.40.773,motor_sequence_learning_exp,2024.1.5,None,2024-10-17 09h18.48.572051 +0530,
-150,z,1,3,7,3,,,,,18.176781099988148,,18.154721900005825,18.176781099988148,19.177761200000532,19.177761200000532,19.177761200000532,19.177761200000532,19.211263600038365,20.17898129997775,20.17898129997775,20.5544606000185,z,1,0.34180980001110584,None,686082,001,2024-10-17_09h18.40.773,motor_sequence_learning_exp,2024.1.5,None,2024-10-17 09h18.48.572051 +0530,
-50,x,2,0,8,0,,,,,20.57950890006032,,20.557089500012808,20.57950890006032,21.580713300034404,21.580713300034404,21.580713300034404,21.580713300034404,21.61373810004443,22.581453199964017,22.581453199964017,22.890622599981725,x,1,0.3024905000347644,None,686082,001,2024-10-17_09h18.40.773,motor_sequence_learning_exp,2024.1.5,None,2024-10-17 09h18.48.572051 +0530,
150,v,2,1,9,1,,,,,22.91543020005338,,22.893276900053024,22.91543020005338,23.916308199986815,23.916308199986815,23.916308199986815,23.916308199986815,23.949646100052632,24.93420260003768,24.93420260003768,25.243153000017628,v,1,0.29215200000908226,None,686082,001,2024-10-17_09h18.40.773,motor_sequence_learning_exp,2024.1.5,None,2024-10-17 09h18.48.572051 +0530,
50,c,2,2,10,2,,,,,25.267898499965668,,25.245927899959497,25.267898499965668,26.268777400022373,26.268777400022373,26.268777400022373,26.268777400022373,26.302146299974993,27.270175999961793,27.270175999961793,27.712526399991475,c,1,0.4146162000251934,None,686082,001,2024-10-17_09h18.40.773,motor_sequence_learning_exp,2024.1.5,None,2024-10-17 09h18.48.572051 +0530,
-150,z,2,3,11,3,,,,,27.73725770006422,,27.715295600006357,27.73725770006422,28.738761199987493,28.738761199987493,28.738761199987493,28.738761199987493,28.771579300053418,29.73941639997065,29.73941639997065,30.115168799995445,z,1,0.35199190001003444,None,686082,001,2024-10-17_09h18.40.773,motor_sequence_learning_exp,2024.1.5,None,2024-10-17 09h18.48.572051 +0530,
-50,x,3,0,12,0,,,,,30.139783499995247,,30.117771900026128,30.139783499995247,31.141817199997604,31.141817199997604,31.141817199997604,31.141817199997604,31.17480220005382,32.142211799975485,32.142211799975485,32.4506895999657,x,1,0.27610290003940463,None,686082,001,2024-10-17_09h18.40.773,motor_sequence_learning_exp,2024.1.5,None,2024-10-17 09h18.48.572051 +0530,
150,v,3,1,13,1,,,,,32.47558740002569,,32.4533047999721,32.47558740002569,33.47681310004555,33.47681310004555,33.47681310004555,33.47681310004555,33.51009029999841,34.47729930002242,34.47729930002242,34.85365060006734,v,1,0.3491189000196755,None,686082,001,2024-10-17_09h18.40.773,motor_sequence_learning_exp,2024.1.5,None,2024-10-17 09h18.48.572051 +0530,
50,c,3,2,14,2,,,,,34.87877109996043,,34.85636820003856,34.87877109996043,35.87938020005822,35.87938020005822,35.87938020005822,35.87938020005822,35.912704800022766,36.88065169996116,36.88065169996116,37.022921600029804,c,1,0.11895360006019473,None,686082,001,2024-10-17_09h18.40.773,motor_sequence_learning_exp,2024.1.5,None,2024-10-17 09h18.48.572051 +0530,
-150,z,3,3,15,3,,,,,37.04759029997513,,37.02557930001058,37.04759029997513,38.04848450003192,38.04848450003192,38.04848450003192,38.04848450003192,38.08180320006795,39.04972370003816,39.04972370003816,39.358073799987324,z,1,0.28328790003433824,None,686082,001,2024-10-17_09h18.40.773,motor_sequence_learning_exp,2024.1.5,None,2024-10-17 09h18.48.572051 +0530,
-50,x,4,0,16,0,,,,,39.38307620002888,,39.360657699988224,39.38307620002888,40.384327200008556,40.384327200008556,40.384327200008556,40.384327200008556,40.41770250000991,41.3854677999625,41.3854677999625,41.69430900004227,x,1,0.2825406000483781,None,686082,001,2024-10-17_09h18.40.773,motor_sequence_learning_exp,2024.1.5,None,2024-10-17 09h18.48.572051 +0530,
150,v,4,1,17,1,,,,,41.718966700020246,,41.69683959998656,41.718966700020246,42.72023440001067,42.72023440001067,42.72023440001067,42.72023440001067,42.75363679998554,43.72141150000971,43.72141150000971,44.0652451000642,v,1,0.31312639999669045,None,686082,001,2024-10-17_09h18.40.773,motor_sequence_learning_exp,2024.1.5,None,2024-10-17 09h18.48.572051 +0530,
50,c,4,2,18,2,,,,,44.08844580000732,,44.06781340006273,44.08844580000732,45.08963289996609,45.08963289996609,45.08963289996609,45.08963289996609,45.12296389997937,46.090689399978146,46.090689399978146,46.39915429998655,c,1,0.28945730009581894,None,686082,001,2024-10-17_09h18.40.773,motor_sequence_learning_exp,2024.1.5,None,2024-10-17 09h18.48.572051 +0530,
-150,z,4,3,19,3,,,,,46.42434220004361,,46.40189169999212,46.42434220004361,47.4254682000028,47.4254682000028,47.4254682000028,47.4254682000028,47.45875780005008,48.42654610006139,48.42654610006139,48.7349116000114,z,1,0.2745680999942124,None,686082,001,2024-10-17_09h18.40.773,motor_sequence_learning_exp,2024.1.5,None,2024-10-17 09h18.48.572051 +0530,
-50,x,5,0,20,0,,,,,48.760179799981415,,48.737512700026855,48.760179799981415,49.76138360006735,49.76138360006735,49.76138360006735,49.76138360006735,49.79477669997141,50.76236809999682,50.76236809999682,51.104342699982226,x,1,0.31421799992676824,None,686082,001,2024-10-17_09h18.40.773,motor_sequence_learning_exp,2024.1.5,None,2024-10-17 09h18.48.572051 +0530,
150,v,5,1,21,1,,,,,51.12944900000002,,51.10698320006486,51.12944900000002,52.13049809995573,52.13049809995573,52.13049809995573,52.13049809995573,52.16379530006088,53.13171300000977,53.13171300000977,53.50723910005763,v,1,0.34219280001707375,None,686082,001,2024-10-17_09h18.40.773,motor_sequence_learning_exp,2024.1.5,None,2024-10-17 09h18.48.572051 +0530,
50,c,5,2,22,2,,,,,53.532064700033516,,53.50986520003062,53.532064700033516,54.53315799997654,54.53315799997654,54.53315799997654,54.53315799997654,54.56650499999523,55.534352399990894,55.534352399990894,55.909729000064544,c,1,0.341462199925445,None,686082,001,2024-10-17_09h18.40.773,motor_sequence_learning_exp,2024.1.5,None,2024-10-17 09h18.48.572051 +0530,
-150,z,5,3,23,3,,,,,55.9348323000595,,55.91234140004963,55.9348323000595,56.9359835999785,56.9359835999785,56.9359835999785,56.9359835999785,56.96904670004733,57.93716760003008,57.93716760003008,58.2456119999988,z,1,0.29335559997707605,None,686082,001,2024-10-17_09h18.40.773,motor_sequence_learning_exp,2024.1.5,None,2024-10-17 09h18.48.572051 +0530,
-50,x,6,0,24,0,,,,,58.27056730003096,,58.248201100039296,58.27056730003096,59.27171740005724,59.27171740005724,59.27171740005724,59.27171740005724,59.305036399979144,60.27287200000137,60.27287200000137,60.58173860004172,x,1,0.30056759994477034,None,686082,001,2024-10-17_09h18.40.773,motor_sequence_learning_exp,2024.1.5,None,2024-10-17 09h18.48.572051 +0530,
150,v,6,1,25,1,,,,,60.60634769999888,,60.584644700051285,60.60634769999888,61.60749359999318,61.60749359999318,61.60749359999318,61.60749359999318,61.64088510000147,62.60875500005204,62.60875500005204,62.91733760002535,v,1,0.27984260010998696,None,686082,001,2024-10-17_09h18.40.773,motor_sequence_learning_exp,2024.1.5,None,2024-10-17 09h18.48.572051 +0530,
50,c,6,2,26,2,,,,,62.942204599967226,,62.919918600004166,62.942204599967226,63.94338099996094,63.94338099996094,63.94338099996094,63.94338099996094,63.96076719998382,64.9614172000438,64.9614172000438,65.270661400049,c,1,0.3053735001012683,None,686082,001,2024-10-17_09h18.40.773,motor_sequence_learning_exp,2024.1.5,None,2024-10-17 09h18.48.572051 +0530,
-150,z,6,3,27,3,,,,,65.29491249995772,,65.27330030000303,65.29491249995772,66.29590320005082,66.29590320005082,66.29590320005082,66.29590320005082,66.32931369997095,67.29714200005401,67.29714200005401,67.60638140002266,z,1,0.300942900008522,None,686082,001,2024-10-17_09h18.40.773,motor_sequence_learning_exp,2024.1.5,None,2024-10-17 09h18.48.572051 +0530,
-50,x,7,0,28,0,,,,,67.63093600003049,,67.60897529998329,67.63093600003049,68.63182570005301,68.63182570005301,68.63182570005301,68.63182570005301,68.66536680003628,69.6331191000063,69.6331191000063,69.97552950005047,x,1,0.32490709994453937,None,686082,001,2024-10-17_09h18.40.773,motor_sequence_learning_exp,2024.1.5,None,2024-10-17 09h18.48.572051 +0530,
150,v,7,1,29,1,,,,,70.00000100000761,,69.97828549996484,70.00000100000761,71.00108519999776,71.00108519999776,71.00108519999776,71.00108519999776,71.03439889999572,72.00213959999382,72.00213959999382,72.3447787000332,v,1,0.314586199936457,None,686082,001,2024-10-17_09h18.40.773,motor_sequence_learning_exp,2024.1.5,None,2024-10-17 09h18.48.572051 +0530,
50,c,7,2,30,2,,,,,72.36983800004236,,72.34734259999823,72.36983800004236,73.37065379996784,73.37065379996784,73.37065379996784,73.37065379996784,73.40366730000824,74.371578100021,74.371578100021,74.68030650005676,c,1,0.30484570004045963,None,686082,001,2024-10-17_09h18.40.773,motor_sequence_learning_exp,2024.1.5,None,2024-10-17 09h18.48.572051 +0530,
-150,z,7,3,31,3,,,,,74.70512040005997,,74.68287210003473,74.70512040005997,75.70618239999749,75.70618239999749,75.70618239999749,75.70618239999749,75.73974630003795,76.70747140003368,76.70747140003368,77.01962150004692,z,1,0.3023890999611467,None,686082,001,2024-10-17_09h18.40.773,motor_sequence_learning_exp,2024.1.5,None,2024-10-17 09h18.48.572051 +0530,
-50,x,8,0,32,0,,,,,77.04109239997342,,77.02232059999369,77.04109239997342,78.04208919999655,78.04208919999655,78.04208919999655,78.04208919999655,78.07546870002989,79.04348250001203,79.04348250001203,79.38570380001329,x,1,0.31936020008288324,None,686082,001,2024-10-17_09h18.40.773,motor_sequence_learning_exp,2024.1.5,None,2024-10-17 09h18.48.572051 +0530,
150,v,8,1,33,1,,,,,79.41074339998886,,79.38834679999854,79.41074339998886,80.4114209000254,80.4114209000254,80.4114209000254,80.4114209000254,80.4448300000513,81.41266739997081,81.41266739997081,81.75485759996809,v,1,0.3166260999860242,None,686082,001,2024-10-17_09h18.40.773,motor_sequence_learning_exp,2024.1.5,None,2024-10-17 09h18.48.572051 +0530,
50,c,8,2,34,2,,,,,81.7796935000224,,81.75750349997543,81.7796935000224,82.78068460000213,82.78068460000213,82.78068460000213,82.78068460000213,82.81416010006797,83.78187840001192,83.78187840001192,84.12429629999679,c,1,0.3282327000051737,None,686082,001,2024-10-17_09h18.40.773,motor_sequence_learning_exp,2024.1.5,None,2024-10-17 09h18.48.572051 +0530,
-150,z,8,3,35,3,,,,,84.14895539998543,,84.12687929999083,84.14895539998543,85.14989590004552,85.14989590004552,85.14989590004552,85.14989590004552,85.18320039997343,86.16792519995943,86.16792519995943,86.4767550000688,z,1,0.2794008000055328,None,686082,001,2024-10-17_09h18.40.773,motor_sequence_learning_exp,2024.1.5,None,2024-10-17 09h18.48.572051 +0530,
-50,x,9,0,36,0,,,,,86.50155839999206,,86.47977670002729,86.50155839999206,87.50255209999159,87.50255209999159,87.50255209999159,87.50255209999159,87.53600910003297,88.50375390006229,88.50375390006229,88.87917019997258,x,1,0.3462893000105396,None,686082,001,2024-10-17_09h18.40.773,motor_sequence_learning_exp,2024.1.5,None,2024-10-17 09h18.48.572051 +0530,
150,v,9,1,37,1,,,,,88.90427209995687,,88.88179949996993,88.90427209995687,89.9051812000107,89.9051812000107,89.9051812000107,89.9051812000107,89.93876769999042,90.90658780001104,90.90658780001104,91.24894970003515,v,1,0.3358050000388175,None,686082,001,2024-10-17_09h18.40.773,motor_sequence_learning_exp,2024.1.5,None,2024-10-17 09h18.48.572051 +0530,
50,c,9,2,38,2,,,,,91.27350750006735,,91.25149799999781,91.27350750006735,92.25858190003783,92.25858190003783,92.25858190003783,92.25858190003783,92.27568389999215,93.27581739996094,93.27581739996094,93.4176790000638,c,1,0.11615310003980994,None,686082,001,2024-10-17_09h18.40.773,motor_sequence_learning_exp,2024.1.5,None,2024-10-17 09h18.48.572051 +0530,
-150,z,9,3,39,3,,,,,93.44247190002352,,93.4202435000334,93.44247190002352,94.4435352999717,94.4435352999717,94.4435352999717,94.4435352999717,94.4768598000519,95.44479280000087,95.44479280000087,95.82106660003774,z,1,0.347568399971351,None,686082,001,2024-10-17_09h18.40.773,motor_sequence_learning_exp,2024.1.5,None,2024-10-17 09h18.48.572051 +0530,
-50,x,10,0,40,0,,,,,95.84513619996142,,95.82362919999287,95.84513619996142,96.8460972000612,96.8460972000612,96.8460972000612,96.8460972000612,96.87946369999554,97.84744689997751,97.84744689997751,98.18963100004476,x,1,0.3202424000483006,None,686082,001,2024-10-17_09h18.40.773,motor_sequence_learning_exp,2024.1.5,None,2024-10-17 09h18.48.572051 +0530,
150,v,10,1,41,1,,,,,98.2144496999681,,98.1921938000014,98.2144496999681,99.21534280001651,99.21534280001651,99.21534280001651,99.21534280001651,99.24868319998495,100.21657190006226,100.21657190006226,100.52575639996212,v,1,0.2947305999696255,None,686082,001,2024-10-17_09h18.40.773,motor_sequence_learning_exp,2024.1.5,None,2024-10-17 09h18.48.572051 +0530,
50,c,10,2,42,2,,,,,100.55069960001856,,100.52830280002672,100.55069960001856,101.55133240006398,101.55133240006398,101.55133240006398,101.55133240006398,101.58500770002138,102.55243819998577,102.55243819998577,102.9760663000634,c,1,0.4204491999698803,None,686082,001,2024-10-17_09h18.40.773,motor_sequence_learning_exp,2024.1.5,None,2024-10-17 09h18.48.572051 +0530,
-150,z,10,3,43,3,,,,,102.98705990007147,,102.97717209998518,102.98705990007147,104.00376019999385,104.00376019999385,104.00376019999385,104.00376019999385,104.00376019999385,105.00506170000881,105.00506170000881,105.89821250003297,z,1,0.8724278000881895,None,686082,001,2024-10-17_09h18.40.773,motor_sequence_learning_exp,2024.1.5,None,2024-10-17 09h18.48.572051 +0530,
-50,x,11,0,44,0,,,,,105.92268810002133,,105.90080619999208,105.92268810002133,106.92388100002427,106.92388100002427,106.92388100002427,106.92388100002427,106.9572142000543,107.92517409997527,107.92517409997527,108.4683323999634,x,1,0.5140033999923617,None,686082,001,2024-10-17_09h18.40.773,motor_sequence_learning_exp,2024.1.5,None,2024-10-17 09h18.48.572051 +0530,
150,v,11,1,45,1,,,,,108.49219200003427,,108.47092089999933,108.49219200003427,109.49325539998244,109.49325539998244,109.49325539998244,109.49325539998244,109.52652159996796,110.49441519996617,110.49441519996617,110.80347779998556,v,1,0.30449690006207675,None,686082,001,2024-10-17_09h18.40.773,motor_sequence_learning_exp,2024.1.5,None,2024-10-17 09h18.48.572051 +0530,
50,c,11,2,46,2,,,,,110.8280752999708,,110.80614210001659,110.8280752999708,111.82911819999572,111.82911819999572,111.82911819999572,111.82911819999572,111.86252720002085,112.83031440002378,112.83031440002378,113.20593719999306,c,1,0.3505022000754252,None,686082,001,2024-10-17_09h18.40.773,motor_sequence_learning_exp,2024.1.5,None,2024-10-17 09h18.48.572051 +0530,
-150,z,11,3,47,3,,,,,113.23078109999187,,113.20854270004202,113.23078109999187,114.23175370006356,114.23175370006356,114.23175370006356,114.23175370006356,114.26508559996728,115.23308120004367,115.23308120004367,115.67607389995828,z,1,0.4123901999555528,None,686082,001,2024-10-17_09h18.40.773,motor_sequence_learning_exp,2024.1.5,None,2024-10-17 09h18.48.572051 +0530,
-50,x,12,0,48,0,,,,,115.70013100001961,,115.67868969996925,115.70013100001961,116.70119110005908,116.70119110005908,116.70119110005908,116.70119110005908,116.73463359999005,117.70229110005312,117.70229110005312,118.07767899997998,x,1,0.36460089997854084,None,686082,001,2024-10-17_09h18.40.773,motor_sequence_learning_exp,2024.1.5,None,2024-10-17 09h18.48.572051 +0530,
150,v,12,1,49,1,,,,,118.10262370004784,,118.08042320003733,118.10262370004784,119.10420750000048,119.10420750000048,119.10420750000048,119.10420750000048,119.13763270003255,120.10507160006091,120.10507160006091,120.44680749997497,v,1,0.3228364000096917,None,686082,001,2024-10-17_09h18.40.773,motor_sequence_learning_exp,2024.1.5,None,2024-10-17 09h18.48.572051 +0530,
50,c,12,2,50,2,,,,,120.47184500005096,,120.44941989996005,120.47184500005096,121.48975479998626,121.48975479998626,121.48975479998626,121.48975479998626,121.48975479998626,122.49091809999663,122.49091809999663,122.83341349998955,c,1,0.33508829993661493,None,686082,001,2024-10-17_09h18.40.773,motor_sequence_learning_exp,2024.1.5,None,2024-10-17 09h18.48.572051 +0530,
-150,z,12,3,51,3,,,,,122.85825719998684,,122.83602749998681,122.85825719998684,123.85890870005824,123.85890870005824,123.85890870005824,123.85890870005824,123.89225829998031,124.86014850006904,124.86014850006904,125.16869279998355,z,1,0.27900779992341995,None,686082,001,2024-10-17_09h18.40.773,motor_sequence_learning_exp,2024.1.5,None,2024-10-17 09h18.48.572051 +0530,
-50,x,13,0,52,0,,,,,125.19378640002105,,125.17153829999734,125.19378640002105,126.19499700004235,126.19499700004235,126.19499700004235,126.19499700004235,126.22819689998869,127.19619779998902,127.19619779998902,127.63822560000699,x,1,0.43273060000501573,None,686082,001,2024-10-17_09h18.40.773,motor_sequence_learning_exp,2024.1.5,None,2024-10-17 09h18.48.572051 +0530,
150,v,13,1,53,1,,,,,127.66316730005201,,127.6408395000035,127.66316730005201,128.66422759997658,128.66422759997658,128.66422759997658,128.66422759997658,128.69753690005746,129.66553560004104,129.66553560004104,130.04093550005928,v,1,0.3558301000157371,None,686082,001,2024-10-17_09h18.40.773,motor_sequence_learning_exp,2024.1.5,None,2024-10-17 09h18.48.572051 +0530,
50,c,13,2,54,2,,,,,130.06576510006562,,130.04354059998877,130.06576510006562,131.06706929998472,131.06706929998472,131.06706929998472,131.06706929998472,131.1003700000001,132.0681149000302,132.0681149000302,132.37692269997206,c,1,0.28721969993785024,None,686082,001,2024-10-17_09h18.40.773,motor_sequence_learning_exp,2024.1.5,None,2024-10-17 09h18.48.572051 +0530,
-150,z,13,3,55,3,,,,,132.40175560000353,,132.37952189997304,132.40175560000353,133.40273720002733,133.40273720002733,133.40273720002733,133.40273720002733,133.43602050002664,134.40397960005794,134.40397960005794,134.74592929997016,z,1,0.3144387999782339,None,686082,001,2024-10-17_09h18.40.773,motor_sequence_learning_exp,2024.1.5,None,2024-10-17 09h18.48.572051 +0530,
-50,x,14,0,56,0,,,,,134.77133010001853,,134.7485654000193,134.77133010001853,135.7719118000241,135.7719118000241,135.7719118000241,135.7719118000241,135.80535430007149,136.77324829995632,136.77324829995632,137.19927590002771,x,1,0.41981019999366254,None,686082,001,2024-10-17_09h18.40.773,motor_sequence_learning_exp,2024.1.5,None,2024-10-17 09h18.48.572051 +0530,
150,v,14,1,57,1,,,,,137.22365120006725,,137.2022161000641,137.22365120006725,138.2245402999688,138.2245402999688,138.2245402999688,138.2245402999688,138.25809700007085,139.22584880003706,139.22584880003706,139.6683051000582,v,1,0.411841299966909,None,686082,001,2024-10-17_09h18.40.773,motor_sequence_learning_exp,2024.1.5,None,2024-10-17 09h18.48.572051 +0530,
50,c,14,2,58,2,,,,,139.69309319998138,,139.6709167000372,139.69309319998138,140.69427510001697,140.69427510001697,140.69427510001697,140.69427510001697,140.7275752000278,141.69528360001277,141.69528360001277,142.03734899999108,c,1,0.31918680004309863,None,686082,001,2024-10-17_09h18.40.773,motor_sequence_learning_exp,2024.1.5,None,2024-10-17 09h18.48.572051 +0530,
-150,z,14,3,59,3,,,,,142.06243599997833,,142.03981810004916,142.06243599997833,143.06417879997753,143.06417879997753,143.06417879997753,143.06417879997753,143.0979532999918,144.04852900002152,144.04852900002152,144.369367999956,z,1,0.30714809999335557,None,686082,001,2024-10-17_09h18.40.773,motor_sequence_learning_exp,2024.1.5,None,2024-10-17 09h18.48.572051 +0530,
-50,x,15,0,60,0,,,,,144.38230469997507,,144.37059070006944,144.38230469997507,145.38357439998072,145.38357439998072,145.38357439998072,145.38357439998072,145.38357439998072,146.3848421999719,146.3848421999719,146.69041849998757,x,1,0.29586579999886453,None,686082,001,2024-10-17_09h18.40.773,motor_sequence_learning_exp,2024.1.5,None,2024-10-17 09h18.48.572051 +0530,
150,v,15,1,61,1,,,,,146.70178310002666,,146.69235480006319,146.70178310002666,147.7027931000339,147.7027931000339,147.7027931000339,147.7027931000339,147.7027931000339,148.7038008000236,148.7038008000236,148.96180649998132,v,1,0.252398099983111,None,686082,001,2024-10-17_09h18.40.773,motor_sequence_learning_exp,2024.1.5,None,2024-10-17 09h18.48.572051 +0530,
50,c,15,2,62,2,,,,,148.98670660005882,,148.96459079999477,148.98670660005882,149.98762599995825,149.98762599995825,149.98762599995825,149.98762599995825,150.02092609996907,150.98906140006147,150.98906140006147,151.26491330005229,c,1,0.24791300005745143,None,686082,001,2024-10-17_09h18.40.773,motor_sequence_learning_exp,2024.1.5,None,2024-10-17 09h18.48.572051 +0530,
-150,z,15,3,63,3,,,,,151.2890153999906,,151.2674221000634,151.2890153999906,152.29031650000252,152.29031650000252,152.29031650000252,152.29031650000252,152.32366880006157,153.29140350001398,153.29140350001398,153.63344060000964,z,1,0.3240465000271797,None,686082,001,2024-10-17_09h18.40.773,motor_sequence_learning_exp,2024.1.5,None,2024-10-17 09h18.48.572051 +0530,
-50,x,16,0,64,0,,,,,153.65837399999145,,153.6360704000108,153.65837399999145,154.65936160006095,154.65936160006095,154.65936160006095,154.65936160006095,154.69289870001376,155.66054940002505,155.66054940002505,156.00268879998475,x,1,0.3383491999702528,None,686082,001,2024-10-17_09h18.40.773,motor_sequence_learning_exp,2024.1.5,None,2024-10-17 09h18.48.572051 +0530,
150,v,16,1,65,1,,,,,156.02764860005118,,156.0054146000184,156.02764860005118,157.02865700004622,157.02865700004622,157.02865700004622,157.02865700004622,157.06194929999765,158.02990960003808,158.02990960003808,158.33897190005518,v,1,0.28610959998331964,None,686082,001,2024-10-17_09h18.40.773,motor_sequence_learning_exp,2024.1.5,None,2024-10-17 09h18.48.572051 +0530,
50,c,16,2,66,2,,,,,158.36361720005516,,158.34157010004856,158.36361720005516,159.36451660003513,159.36451660003513,159.36451660003513,159.36451660003513,159.39788139995653,160.36577160004526,160.36577160004526,160.70831360004377,c,1,0.31346790003590286,None,686082,001,2024-10-17_09h18.40.773,motor_sequence_learning_exp,2024.1.5,None,2024-10-17 09h18.48.572051 +0530,
-150,z,16,3,67,3,,,,,160.73275219998322,,160.71090509998612,160.73275219998322,161.73398809996434,161.73398809996434,161.73398809996434,161.73398809996434,161.76736789999995,162.7351129000308,162.7351129000308,163.0434562000446,z,1,0.2941546000074595,None,686082,001,2024-10-17_09h18.40.773,motor_sequence_learning_exp,2024.1.5,None,2024-10-17 09h18.48.572051 +0530,
-50,x,17,0,68,0,,,,,163.06869059999008,,163.0461146000307,163.06869059999008,164.0696634000633,164.0696634000633,164.0696634000633,164.0696634000633,164.10307249997277,165.05490260000806,165.05490260000806,165.41337760002352,x,1,0.34311489993706346,None,686082,001,2024-10-17_09h18.40.773,motor_sequence_learning_exp,2024.1.5,None,2024-10-17 09h18.48.572051 +0530,
150,v,17,1,69,1,,,,,165.43799979996402,,165.41593250003643,165.43799979996402,166.43899920000695,166.43899920000695,166.43899920000695,166.43899920000695,166.47244909999426,167.44007879996207,167.44007879996207,167.78226540004835,v,1,0.3188554000807926,None,686082,001,2024-10-17_09h18.40.773,motor_sequence_learning_exp,2024.1.5,None,2024-10-17 09h18.48.572051 +0530,
50,c,17,2,70,2,,,,,167.8070514999563,,167.78503090003505,167.8070514999563,168.8080895000603,168.8080895000603,168.8080895000603,168.8080895000603,168.84142269997392,169.80957400007173,169.80957400007173,170.1512584000593,c,1,0.3103487000335008,None,686082,001,2024-10-17_09h18.40.773,motor_sequence_learning_exp,2024.1.5,None,2024-10-17 09h18.48.572051 +0530,
-150,z,17,3,71,3,,,,,170.17646600003354,,170.1537965000607,170.17646600003354,171.17748870002106,171.17748870002106,171.17748870002106,171.17748870002106,171.21069490001537,172.17847469996195,172.17847469996195,172.5218312999932,z,1,0.32909350004047155,None,686082,001,2024-10-17_09h18.40.773,motor_sequence_learning_exp,2024.1.5,None,2024-10-17 09h18.48.572051 +0530,
-50,x,18,0,72,0,,,,,172.54571179999039,,172.5244556000689,172.54571179999039,173.54694450006355,173.54694450006355,173.54694450006355,173.54694450006355,173.58015040005557,174.54799600003753,174.54799600003753,174.85682300000917,x,1,0.28918459999840707,None,686082,001,2024-10-17_09h18.40.773,motor_sequence_learning_exp,2024.1.5,None,2024-10-17 09h18.48.572051 +0530,
150,v,18,1,73,1,,,,,174.8820094000548,,174.8594141000649,174.8820094000548,175.8824676000513,175.8824676000513,175.8824676000513,175.8824676000513,175.91581470007077,176.88384230004158,176.88384230004158,177.75968350004405,v,1,0.8467550999484956,None,686082,001,2024-10-17_09h18.40.773,motor_sequence_learning_exp,2024.1.5,None,2024-10-17 09h18.48.572051 +0530,
50,c,18,2,74,2,,,,,177.78462569997646,,177.76229250000324,177.78462569997646,178.78574710001703,178.78574710001703,178.78574710001703,178.78574710001703,178.81919209996704,179.78699200006668,179.78699200006668,180.12917900003958,c,1,0.320129600004293,None,686082,001,2024-10-17_09h18.40.773,motor_sequence_learning_exp,2024.1.5,None,2024-10-17 09h18.48.572051 +0530,
-150,z,18,3,75,3,,,,,180.15407290006988,,180.13177980005275,180.15407290006988,181.15500619995873,181.15500619995873,181.15500619995873,181.15500619995873,181.18877620005514,182.15642330003902,182.15642330003902,182.46485760004725,z,1,0.29706780007109046,None,686082,001,2024-10-17_09h18.40.773,motor_sequence_learning_exp,2024.1.5,None,2024-10-17 09h18.48.572051 +0530,
-50,x,19,0,76,0,,,,,182.48989369999617,,182.46747579996008,182.48989369999617,183.49086460005492,183.49086460005492,183.49086460005492,183.49086460005492,183.52411870006472,184.49218910001218,184.49218910001218,185.03479770000558,x,1,0.5269915999379009,None,686082,001,2024-10-17_09h18.40.773,motor_sequence_learning_exp,2024.1.5,None,2024-10-17 09h18.48.572051 +0530,
150,v,19,1,77,1,,,,,185.0593270000536,,185.0373658000026,185.0593270000536,186.06036210001912,186.06036210001912,186.06036210001912,186.06036210001912,186.09372070000973,187.06159669999033,187.06159669999033,187.40336330002174,v,1,0.32793969998601824,None,686082,001,2024-10-17_09h18.40.773,motor_sequence_learning_exp,2024.1.5,None,2024-10-17 09h18.48.572051 +0530,
50,c,19,2,78,2,,,,,187.42857510002796,,187.40607909997925,187.42857510002796,188.42969340004493,188.42969340004493,188.42969340004493,188.42969340004493,188.46319170005154,189.4309218999697,189.4309218999697,189.80648550007027,c,1,0.3449906000168994,None,686082,001,2024-10-17_09h18.40.773,motor_sequence_learning_exp,2024.1.5,None,2024-10-17 09h18.48.572051 +0530,
-150,z,19,3,79,3,,,,,189.83123770006932,,189.80907570000272,189.83123770006932,190.8322027999675,190.8322027999675,190.8322027999675,190.8322027999675,190.86569070001133,191.85029339999892,191.85029339999892,192.19267460005358,z,1,0.31345450005028397,None,686082,001,2024-10-17_09h18.40.773,motor_sequence_learning_exp,2024.1.5,None,2024-10-17 09h18.48.572051 +0530,
-50,x,20,0,80,0,,,,,192.21716060000472,,192.19527150003705,192.21716060000472,193.2182227000594,193.2182227000594,193.2182227000594,193.2182227000594,193.25157890003175,194.2194726000307,194.2194726000307,194.59549089998472,x,1,0.35372119990643114,None,686082,001,2024-10-17_09h18.40.773,motor_sequence_learning_exp,2024.1.5,None,2024-10-17 09h18.48.572051 +0530,
150,v,20,1,81,1,,,,,194.62001369998325,,194.59810140007176,194.62001369998325,195.62101580004673,195.62101580004673,195.62101580004673,195.62101580004673,195.6544004000025,196.62216809997335,196.62216809997335,196.96391319995746,v,1,0.3076006000628695,None,686082,001,2024-10-17_09h18.40.773,motor_sequence_learning_exp,2024.1.5,None,2024-10-17 09h18.48.572051 +0530,
50,c,20,2,82,2,,,,,196.98908710002434,,196.9665265000658,196.98908710002434,197.99027479998767,197.99027479998767,197.99027479998767,197.99027479998767,198.02377510000952,198.9913455999922,198.9913455999922,199.3333972999826,c,1,0.32295009994413704,None,686082,001,2024-10-17_09h18.40.773,motor_sequence_learning_exp,2024.1.5,None,2024-10-17 09h18.48.572051 +0530,
-150,z,20,3,83,3,,,,,199.35832160001155,,199.33599090005737,199.35832160001155,200.3592823999934,200.3592823999934,200.3592823999934,200.3592823999934,200.39282099995762,201.36052079999354,201.36052079999354,201.63592510006856,z,1,0.27087470004335046,None,686082,001,2024-10-17_09h18.40.773,motor_sequence_learning_exp,2024.1.5,None,2024-10-17 09h18.48.572051 +0530,
-50,x,21,0,84,0,,,,,201.66090959997382,,201.63851259998046,201.66090959997382,202.66202950000297,202.66202950000297,202.66202950000297,202.66202950000297,202.69529189995956,203.66305410000496,203.66305410000496,203.9718660999788,x,1,0.2979070999426767,None,686082,001,2024-10-17_09h18.40.773,motor_sequence_learning_exp,2024.1.5,None,2024-10-17 09h18.48.572051 +0530,
150,v,21,1,85,1,,,,,203.99684719997458,,203.97443509998266,203.99684719997458,204.99791200004984,204.99791200004984,204.99791200004984,204.99791200004984,205.03105540003162,205.99899600003846,205.99899600003846,206.3408408999676,v,1,0.33215420006308705,None,686082,001,2024-10-17_09h18.40.773,motor_sequence_learning_exp,2024.1.5,None,2024-10-17 09h18.48.572051 +0530,
50,c,21,2,86,2,,,,,206.3659923999803,,206.3433451000601,206.3659923999803,207.3670490999939,207.3670490999939,207.3670490999939,207.3670490999939,207.40040350006893,208.36832400003914,208.36832400003914,208.67708789999597,c,1,0.27978449990041554,None,686082,001,2024-10-17_09h18.40.773,motor_sequence_learning_exp,2024.1.5,None,2024-10-17 09h18.48.572051 +0530,
-150,z,21,3,87,3,,,,,208.7020380999893,,208.6797011999879,208.7020380999893,209.70287459995598,209.70287459995598,209.70287459995598,209.70287459995598,209.73621340002865,210.7040924000321,210.7040924000321,211.07978569995612,z,1,0.36571689997799695,None,686082,001,2024-10-17_09h18.40.773,motor_sequence_learning_exp,2024.1.5,None,2024-10-17 09h18.48.572051 +0530,
-50,x,22,0,88,0,,,,,211.10448530002031,,211.08239950006828,211.10448530002031,212.1056230000686,212.1056230000686,212.1056230000686,212.1056230000686,212.13897680002265,213.10693380003795,213.10693380003795,213.48274680005852,x,1,0.3527971999719739,None,686082,001,2024-10-17_09h18.40.773,motor_sequence_learning_exp,2024.1.5,None,2024-10-17 09h18.48.572051 +0530,
150,v,22,1,89,1,,,,,213.5072745999787,,213.48531560006086,213.5072745999787,214.50869789998978,214.50869789998978,214.50869789998978,214.50869789998978,214.54154050000943,215.50938439997844,215.50938439997844,215.81811520003248,v,1,0.3048454999225214,None,686082,001,2024-10-17_09h18.40.773,motor_sequence_learning_exp,2024.1.5,None,2024-10-17 09h18.48.572051 +0530,
50,c,22,2,90,2,,,,,215.84308000002056,,215.8211078000022,215.84308000002056,216.84414800000377,216.84414800000377,216.84414800000377,216.84414800000377,216.87759699998423,217.84549990005326,217.84549990005326,218.15461129997857,c,1,0.30678339989390224,None,686082,001,2024-10-17_09h18.40.773,motor_sequence_learning_exp,2024.1.5,None,2024-10-17 09h18.48.572051 +0530,
-150,z,22,3,91,3,,,,,218.17993450001813,,218.15719870000612,218.17993450001813,219.17999500001315,219.17999500001315,219.17999500001315,219.17999500001315,219.21332730003633,220.18117140000686,220.18117140000686,220.62355380004738,z,1,0.42727190000005066,None,686082,001,2024-10-17_09h18.40.773,motor_sequence_learning_exp,2024.1.5,None,2024-10-17 09h18.48.572051 +0530,
-50,x,23,0,92,0,,,,,220.64858479995746,,220.62615150003694,220.64858479995746,221.64965699997265,221.64965699997265,221.64965699997265,221.64965699997265,221.68278270005248,222.65067929995712,222.65067929995712,222.99275600002147,x,1,0.3107204999541864,None,686082,001,2024-10-17_09h18.40.773,motor_sequence_learning_exp,2024.1.5,None,2024-10-17 09h18.48.572051 +0530,
150,v,23,1,93,1,,,,,223.01763210003264,,222.9952837000601,223.01763210003264,224.01871329999994,224.01871329999994,224.01871329999994,224.01871329999994,224.05207600002177,225.01991350005846,225.01991350005846,225.29549369995948,v,1,0.24500489991623908,None,686082,001,2024-10-17_09h18.40.773,motor_sequence_learning_exp,2024.1.5,None,2024-10-17 09h18.48.572051 +0530,
50,c,23,2,94,2,,,,,225.32018739997875,,225.2982214000076,225.32018739997875,226.3211941999616,226.3211941999616,226.3211941999616,226.3211941999616,226.35469940002076,227.32235110003967,227.32235110003967,227.63102009997237,c,1,0.27860690001398325,None,686082,001,2024-10-17_09h18.40.773,motor_sequence_learning_exp,2024.1.5,None,2024-10-17 09h18.48.572051 +0530,
-150,z,23,3,95,3,,,,,227.65589110006113,,227.6336086000083,227.65589110006113,228.65696060005575,228.65696060005575,228.65696060005575,228.65696060005575,228.6902975999983,229.65806300006807,229.65806300006807,230.00044960004743,z,1,0.33747619995847344,None,686082,001,2024-10-17_09h18.40.773,motor_sequence_learning_exp,2024.1.5,None,2024-10-17 09h18.48.572051 +0530,
-50,x,24,0,96,0,,,,,230.02522020007018,,230.0030399999814,230.02522020007018,231.0254855999956,231.0254855999956,231.0254855999956,231.0254855999956,231.05954030004796,232.0274289000081,232.0274289000081,232.3701877000276,x,1,0.30968619999475777,None,686082,001,2024-10-17_09h18.40.773,motor_sequence_learning_exp,2024.1.5,None,2024-10-17 09h18.48.572051 +0530,
150,v,24,1,97,1,,,,,232.39450990001205,,232.3727455000626,232.39450990001205,233.39567180001177,233.39567180001177,233.39567180001177,233.39567180001177,233.42907680000644,234.39677410002332,234.39677410002332,234.73868239996955,v,1,0.32227689994033426,None,686082,001,2024-10-17_09h18.40.773,motor_sequence_learning_exp,2024.1.5,None,2024-10-17 09h18.48.572051 +0530,
50,c,24,2,98,2,,,,,234.7636816999875,,234.74143399996683,234.7636816999875,235.764769100002,235.764769100002,235.764769100002,235.764769100002,235.79815849999432,236.7660713000223,236.7660713000223,237.07470760005526,c,1,0.3065193999791518,None,686082,001,2024-10-17_09h18.40.773,motor_sequence_learning_exp,2024.1.5,None,2024-10-17 09h18.48.572051 +0530,
-150,z,24,3,99,3,,,,,237.09975860000122,,237.07729280006606,237.09975860000122,238.10060690005776,238.10060690005776,238.10060690005776,238.10060690005776,238.13394840003457,239.10185289999936,239.10185289999936,239.41086509998422,z,1,0.28719880001153797,None,686082,001,2024-10-17_09h18.40.773,motor_sequence_learning_exp,2024.1.5,None,2024-10-17 09h18.48.572051 +0530,
-50,x,25,0,100,0,,,,,239.4354579000501,,239.4134537000209,239.4354579000501,240.43662950000726,240.43662950000726,240.43662950000726,240.43662950000726,240.47007400006987,241.43775909999385,241.43775909999385,241.9803609000519,x,1,0.5275529000209644,None,686082,001,2024-10-17_09h18.40.773,motor_sequence_learning_exp,2024.1.5,None,2024-10-17 09h18.48.572051 +0530,
150,v,25,1,101,1,,,,,242.00492089998443,,241.9829083000077,242.00492089998443,243.00609939999413,243.00609939999413,243.00609939999413,243.00609939999413,243.0393435000442,244.00730419997126,244.00730419997126,244.38288010004908,v,1,0.35514539992436767,None,686082,001,2024-10-17_09h18.40.773,motor_sequence_learning_exp,2024.1.5,None,2024-10-17 09h18.48.572051 +0530,
50,c,25,2,102,2,,,,,244.40760130004492,,244.38550279999617,244.40760130004492,245.40869479998946,245.40869479998946,245.40869479998946,245.40869479998946,245.44220100005623,246.4099145999644,246.4099145999644,246.71858410001732,c,1,0.3068865000968799,None,686082,001,2024-10-17_09h18.40.773,motor_sequence_learning_exp,2024.1.5,None,2024-10-17 09h18.48.572051 +0530,
-150,z,25,3,103,3,,,,,246.743622399983,,246.7211730000563,246.743622399983,247.74461569997948,247.74461569997948,247.74461569997948,247.74461569997948,247.77805229998194,248.74583879997954,248.74583879997954,249.05487450002693,z,1,0.29565179999917746,None,686082,001,2024-10-17_09h18.40.773,motor_sequence_learning_exp,2024.1.5,None,2024-10-17 09h18.48.572051 +0530,
-50,x,26,0,104,0,,,,,249.0798243000172,,249.05745079996996,249.0798243000172,250.08046289999038,250.08046289999038,250.08046289999038,250.08046289999038,250.11397060006857,251.08163350005634,251.08163350005634,251.4570403000107,x,1,0.3496504999930039,None,686082,001,2024-10-17_09h18.40.773,motor_sequence_learning_exp,2024.1.5,None,2024-10-17 09h18.48.572051 +0530,
150,v,26,1,105,1,,,,,251.4820179999806,,251.4601677999599,251.4820179999806,252.48318920005113,252.48318920005113,252.48318920005113,252.48318920005113,252.51658759999555,253.4844031999819,253.4844031999819,253.82686589995865,v,1,0.32267010002397,None,686082,001,2024-10-17_09h18.40.773,motor_sequence_learning_exp,2024.1.5,None,2024-10-17 09h18.48.572051 +0530,
50,c,26,2,106,2,,,,,253.85159269999713,,253.8294492000714,253.85159269999713,254.8523236999754,254.8523236999754,254.8523236999754,254.8523236999754,254.88565760001075,255.8534828000702,255.8534828000702,256.4625302000204,c,1,0.5916811999632046,None,686082,001,2024-10-17_09h18.40.773,motor_sequence_learning_exp,2024.1.5,None,2024-10-17 09h18.48.572051 +0530,
-150,z,26,3,107,3,,,,,256.48742989997845,,256.4651264999993,256.48742989997845,257.4885526000289,257.4885526000289,257.4885526000289,257.4885526000289,257.5218905999791,258.48977089999244,258.48977089999244,258.76546400005464,z,1,0.27380089997313917,None,686082,001,2024-10-17_09h18.40.773,motor_sequence_learning_exp,2024.1.5,None,2024-10-17 09h18.48.572051 +0530,
-50,x,27,0,108,0,,,,,258.7901248000562,,258.7680169000523,258.7901248000562,259.79105040000286,259.79105040000286,259.79105040000286,259.79105040000286,259.824440700002,260.7922996999696,260.7922996999696,260.8675983999856,x,1,0.06360720004886389,None,686082,001,2024-10-17_09h18.40.773,motor_sequence_learning_exp,2024.1.5,None,2024-10-17 09h18.48.572051 +0530,
150,v,27,1,109,1,,,,,260.8925923999632,,260.87034280004445,260.8925923999632,261.8937584999949,261.8937584999949,261.8937584999949,261.8937584999949,261.92674520006403,262.895038299961,262.895038299961,263.33652210002765,v,1,0.4196766000241041,None,686082,001,2024-10-17_09h18.40.773,motor_sequence_learning_exp,2024.1.5,None,2024-10-17 09h18.48.572051 +0530,
50,c,27,2,110,2,,,,,263.36187420005444,,263.3391669000266,263.36187420005444,264.36292850004975,264.36292850004975,264.36292850004975,264.36292850004975,264.3960451000603,265.36386689997744,265.36386689997744,265.8064602999948,c,1,0.40836170001421124,None,686082,001,2024-10-17_09h18.40.773,motor_sequence_learning_exp,2024.1.5,None,2024-10-17 09h18.48.572051 +0530,
-150,z,27,3,111,3,,,,,265.8312476000283,,265.8090302000055,265.8312476000283,266.8321048000362,266.8321048000362,266.8321048000362,266.8321048000362,266.86554649996106,267.8333696000045,267.8333696000045,268.2086157000158,z,1,0.3521188000449911,None,686082,001,2024-10-17_09h18.40.773,motor_sequence_learning_exp,2024.1.5,None,2024-10-17 09h18.48.572051 +0530,
-50,x,28,0,112,0,,,,,268.2336283000186,,268.21117590006907,268.2336283000186,269.23479220003355,269.23479220003355,269.23479220003355,269.23479220003355,269.2680365999695,270.2363359000301,270.2363359000301,270.61114970000926,x,1,0.34890109999105334,None,686082,001,2024-10-17_09h18.40.773,motor_sequence_learning_exp,2024.1.5,None,2024-10-17 09h18.48.572051 +0530,
150,v,28,1,113,1,,,,,270.63631730002817,,270.61382760002743,270.63631730002817,271.6373347999761,271.6373347999761,271.6373347999761,271.6373347999761,271.67064180003945,272.63858430006076,272.63858430006076,273.01470379997045,v,1,0.3653684000018984,None,686082,001,2024-10-17_09h18.40.773,motor_sequence_learning_exp,2024.1.5,None,2024-10-17 09h18.48.572051 +0530,
50,c,28,2,114,2,,,,,273.0389580000192,,273.01726940006483,273.0389580000192,274.03993690002244,274.03993690002244,274.03993690002244,274.03993690002244,274.0733306000475,275.05780189996585,275.05780189996585,275.366602199967,c,1,0.29261300002690405,None,686082,001,2024-10-17_09h18.40.773,motor_sequence_learning_exp,2024.1.5,None,2024-10-17 09h18.48.572051 +0530,
-150,z,28,3,115,3,,,,,275.3915016000392,,275.3691415999783,275.3915016000392,276.392755900044,276.392755900044,276.392755900044,276.392755900044,276.42611570004374,277.3939178000437,277.3939178000437,277.7362451000372,z,1,0.30823129997588694,None,686082,001,2024-10-17_09h18.40.773,motor_sequence_learning_exp,2024.1.5,None,2024-10-17 09h18.48.572051 +0530,
-50,x,29,0,116,0,,,,,277.7613149000099,,277.73883200006094,277.7613149000099,278.76214190002065,278.76214190002065,278.76214190002065,278.76214190002065,278.79535769997165,279.7630069999723,279.7630069999723,280.1052444999805,x,1,0.32461939996574074,None,686082,001,2024-10-17_09h18.40.773,motor_sequence_learning_exp,2024.1.5,None,2024-10-17 09h18.48.572051 +0530,
150,v,29,1,117,1,,,,,280.13002380006947,,280.1077867000131,280.13002380006947,281.1310949999606,281.1310949999606,281.1310949999606,281.1310949999606,281.16453770000953,282.1325401000213,282.1325401000213,282.4747341000475,v,1,0.3275826999451965,None,686082,001,2024-10-17_09h18.40.773,motor_sequence_learning_exp,2024.1.5,None,2024-10-17 09h18.48.572051 +0530,
50,c,29,2,118,2,,,,,282.49955229996704,,282.47734790004324,282.49955229996704,283.50051829998847,283.50051829998847,283.50051829998847,283.50051829998847,283.533866200014,284.5015969000524,284.5015969000524,284.84384430001955,c,1,0.31570009991992265,None,686082,001,2024-10-17_09h18.40.773,motor_sequence_learning_exp,2024.1.5,None,2024-10-17 09h18.48.572051 +0530,
-150,z,29,3,119,3,,,,,284.8687380000483,,284.8464615000412,284.8687380000483,285.86969550000504,285.86969550000504,285.86969550000504,285.86969550000504,285.9031699000625,286.87091120006517,286.87091120006517,287.17959449999034,z,1,0.30313150002621114,None,686082,001,2024-10-17_09h18.40.773,motor_sequence_learning_exp,2024.1.5,None,2024-10-17 09h18.48.572051 +0530,
-50,x,30,0,120,0,,,,,287.20464000001084,,287.18221700005233,287.20464000001084,288.20552580000367,288.20552580000367,288.20552580000367,288.20552580000367,288.2388346999651,289.20678460004274,289.20678460004274,289.48187270003837,x,1,0.25257150002289563,None,686082,001,2024-10-17_09h18.40.773,motor_sequence_learning_exp,2024.1.5,None,2024-10-17 09h18.48.572051 +0530,
150,v,30,1,121,1,,,,,289.5070298999781,,289.48450969997793,289.5070298999781,290.5080338000553,290.5080338000553,290.5080338000553,290.5080338000553,290.54139270004816,291.5091075999662,291.5091075999662,291.8514430000214,v,1,0.32165769999846816,None,686082,001,2024-10-17_09h18.40.773,motor_sequence_learning_exp,2024.1.5,None,2024-10-17 09h18.48.572051 +0530,
50,c,30,2,122,2,,,,,291.87622750003356,,291.85404850007035,291.87622750003356,292.8772444999777,292.8772444999777,292.8772444999777,292.8772444999777,292.9107466000132,293.87839329999406,293.87839329999406,294.22090089996345,c,1,0.32101160008460283,None,686082,001,2024-10-17_09h18.40.773,motor_sequence_learning_exp,2024.1.5,None,2024-10-17 09h18.48.572051 +0530,
-150,z,30,3,123,3,,,,,294.2456513000652,,294.22345399996266,294.2456513000652,295.24674329999834,295.24674329999834,295.24674329999834,295.24674329999834,295.279979199986,296.2477516999934,296.2477516999934,296.5565464000683,z,1,0.2981897999998182,None,686082,001,2024-10-17_09h18.40.773,motor_sequence_learning_exp,2024.1.5,None,2024-10-17 09h18.48.572051 +0530,
-50,x,31,0,124,0,,,,,296.58137220004573,,296.5591631999705,296.58137220004573,297.5823388999561,297.5823388999561,297.5823388999561,297.5823388999561,297.61588080006186,298.5835852000164,298.5835852000164,298.9932844999712,x,1,0.3769476000452414,None,686082,001,2024-10-17_09h18.40.773,motor_sequence_learning_exp,2024.1.5,None,2024-10-17 09h18.48.572051 +0530,
150,v,31,1,125,1,,,,,299.0175312999636,,298.99590990005527,299.0175312999636,300.01858929998707,300.01858929998707,300.01858929998707,300.01858929998707,300.0519143000711,301.0196427999763,301.0196427999763,301.3614917000523,v,1,0.31379599997308105,None,686082,001,2024-10-17_09h18.40.773,motor_sequence_learning_exp,2024.1.5,None,2024-10-17 09h18.48.572051 +0530,
50,c,31,2,126,2,,,,,301.38662600005046,,301.36424360005185,301.38662600005046,302.38768240006175,302.38768240006175,302.38768240006175,302.38768240006175,302.42095509998035,303.3892435999587,303.3892435999587,303.73134830000345,c,1,0.34038569999393076,None,686082,001,2024-10-17_09h18.40.773,motor_sequence_learning_exp,2024.1.5,None,2024-10-17 09h18.48.572051 +0530,
-150,z,31,3,127,3,,,,,303.75586779997684,,303.73400589998346,303.75586779997684,304.7570847000461,304.7570847000461,304.7570847000461,304.7570847000461,304.7902510999702,305.7581701000454,305.7581701000454,306.0680257000495,z,1,0.3061986999819055,None,686082,001,2024-10-17_09h18.40.773,motor_sequence_learning_exp,2024.1.5,None,2024-10-17 09h18.48.572051 +0530,
-50,x,32,0,128,0,,,,,306.09187360003125,,306.07077680004295,306.09187360003125,307.09276849997696,307.09276849997696,307.09276849997696,307.09276849997696,307.1261082000565,308.09409659996163,308.09409659996163,308.4359585000202,x,1,0.31804180005565286,None,686082,001,2024-10-17_09h18.40.773,motor_sequence_learning_exp,2024.1.5,None,2024-10-17 09h18.48.572051 +0530,
150,v,32,1,129,1,,,,,308.46108410006855,,308.43856839998625,308.46108410006855,309.4620699000079,309.4620699000079,309.4620699000079,309.4620699000079,309.4957365000155,310.46342599997297,310.46342599997297,310.772540200036,v,1,0.3054378000088036,None,686082,001,2024-10-17_09h18.40.773,motor_sequence_learning_exp,2024.1.5,None,2024-10-17 09h18.48.572051 +0530,
50,c,32,2,130,2,,,,,310.7968991000671,,310.77510590001475,310.7968991000671,311.79797680000775,311.79797680000775,311.79797680000775,311.79797680000775,311.83224410004914,312.7991583000403,312.7991583000403,313.2414869000204,c,1,0.433561599929817,None,686082,001,2024-10-17_09h18.40.773,motor_sequence_learning_exp,2024.1.5,None,2024-10-17 09h18.48.572051 +0530,
-150,z,32,3,131,3,,,,,313.26615449995734,,313.2441148000071,313.26615449995734,314.26747299998533,314.26747299998533,314.26747299998533,314.26747299998533,314.3009873999981,315.26854229997844,315.26854229997844,315.58002860005945,z,1,0.288780500064604,None,686082,001,2024-10-17_09h18.40.773,motor_sequence_learning_exp,2024.1.5,None,2024-10-17 09h18.48.572051 +0530,
-50,x,33,0,132,0,,,,,315.6022218000144,,315.5828561000526,315.6022218000144,316.60317859996576,316.60317859996576,316.60317859996576,316.60317859996576,316.63666429999284,317.6038708999986,317.6038708999986,318.0799111999804,x,1,0.44935939996503294,None,686082,001,2024-10-17_09h18.40.773,motor_sequence_learning_exp,2024.1.5,None,2024-10-17 09h18.48.572051 +0530,
150,v,33,1,133,1,,,,,318.105155199999,,318.0824924999615,318.105155199999,319.1061109000584,319.1061109000584,319.1061109000584,319.1061109000584,319.13940210000146,320.1071387999691,320.1071387999691,320.44981480005663,v,1,0.3294521999778226,None,686082,001,2024-10-17_09h18.40.773,motor_sequence_learning_exp,2024.1.5,None,2024-10-17 09h18.48.572051 +0530,
50,c,33,2,134,2,,,,,320.4742779000662,,320.45238030003384,320.4742779000662,321.4752552000573,321.4752552000573,321.4752552000573,321.4752552000573,321.50854640000034,322.4764506999636,322.4764506999636,322.8191729000537,c,1,0.3391531000379473,None,686082,001,2024-10-17_09h18.40.773,motor_sequence_learning_exp,2024.1.5,None,2024-10-17 09h18.48.572051 +0530,
-150,z,33,3,135,3,,,,,322.84379439998884,,322.82197910000104,322.84379439998884,323.8445018000202,323.8445018000202,323.8445018000202,323.8445018000202,323.8778539999621,324.84589710005093,324.84589710005093,325.1546032000333,z,1,0.2964829000411555,None,686082,001,2024-10-17_09h18.40.773,motor_sequence_learning_exp,2024.1.5,None,2024-10-17 09h18.48.572051 +0530,
-50,x,34,0,136,0,,,,,325.17941650003195,,325.15717640006915,325.17941650003195,326.16401940002106,326.16401940002106,326.16401940002106,326.16401940002106,326.1813050999772,327.18156110006385,327.18156110006385,327.52386399998795,x,1,0.31591839995235205,None,686082,001,2024-10-17_09h18.40.773,motor_sequence_learning_exp,2024.1.5,None,2024-10-17 09h18.48.572051 +0530,
150,v,34,1,137,1,,,,,327.54858840000816,,327.5264563000528,327.54858840000816,328.5500228999881,328.5500228999881,328.5500228999881,328.5500228999881,328.58304920000955,329.55112239997834,329.55112239997834,329.9263948999578,v,1,0.3658209000714123,None,686082,001,2024-10-17_09h18.40.773,motor_sequence_learning_exp,2024.1.5,None,2024-10-17 09h18.48.572051 +0530,
50,c,34,2,138,2,,,,,329.95127650001086,,329.9291542000137,329.95127650001086,330.9527131000068,330.9527131000068,330.9527131000068,330.9527131000068,330.98555099999066,331.95353960001376,331.95353960001376,332.2958391000284,c,1,0.33500410011038184,None,686082,001,2024-10-17_09h18.40.773,motor_sequence_learning_exp,2024.1.5,None,2024-10-17 09h18.48.572051 +0530,
-150,z,34,3,139,3,,,,,332.3205968000693,,332.29845230001956,332.3205968000693,333.32167380000465,333.32167380000465,333.32167380000465,333.32167380000465,333.35495790001005,334.32277410000097,334.32277410000097,334.63157950004097,z,1,0.29212070000357926,None,686082,001,2024-10-17_09h18.40.773,motor_sequence_learning_exp,2024.1.5,None,2024-10-17 09h18.48.572051 +0530,
-50,x,35,0,140,0,,,,,334.6563821999589,,334.6342267000582,334.6563821999589,335.65735490003135,335.65735490003135,335.65735490003135,335.65735490003135,335.6906872000545,336.6587917000288,336.6587917000288,336.9679632000625,x,1,0.2887967999558896,None,686082,001,2024-10-17_09h18.40.773,motor_sequence_learning_exp,2024.1.5,None,2024-10-17 09h18.48.572051 +0530,
150,v,35,1,141,1,,,,,336.9926115999697,,336.9708922000136,336.9926115999697,337.9774727000622,337.9774727000622,337.9774727000622,337.9774727000622,337.9940754000563,338.99467270006426,338.99467270006426,339.33712390006986,v,1,0.337020100094378,None,686082,001,2024-10-17_09h18.40.773,motor_sequence_learning_exp,2024.1.5,None,2024-10-17 09h18.48.572051 +0530,
50,c,35,2,142,2,,,,,339.36175210005604,,339.33969130006153,339.36175210005604,340.3625710000051,340.3625710000051,340.3625710000051,340.3625710000051,340.3961412999779,341.3638358999742,341.3638358999742,341.9057957000332,c,1,0.5139689999632537,None,686082,001,2024-10-17_09h18.40.773,motor_sequence_learning_exp,2024.1.5,None,2024-10-17 09h18.48.572051 +0530,
-150,z,35,3,143,3,,,,,341.93093390006106,,341.90835409995634,341.93093390006106,342.9321343000047,342.9321343000047,342.9321343000047,342.9321343000047,342.9654799000127,343.93358429998625,343.93358429998625,344.2751984000206,z,1,0.32559759996365756,None,686082,001,2024-10-17_09h18.40.773,motor_sequence_learning_exp,2024.1.5,None,2024-10-17 09h18.48.572051 +0530,
-50,x,36,0,144,0,,,,,344.30036820005625,,344.2779420999577,344.30036820005625,345.3015621000668,345.3015621000668,345.3015621000668,345.3015621000668,345.334902600036,346.30267610005103,346.30267610005103,346.6445903000422,x,1,0.32931320008356124,None,686082,001,2024-10-17_09h18.40.773,motor_sequence_learning_exp,2024.1.5,None,2024-10-17 09h18.48.572051 +0530,
150,v,36,1,145,1,,,,,346.66965339996386,,346.6472075000638,346.66965339996386,347.67062450002413,347.67062450002413,347.67062450002413,347.67062450002413,347.7039232000243,348.6718765000114,348.6718765000114,349.11399880005047,v,1,0.42771620000712574,None,686082,001,2024-10-17_09h18.40.773,motor_sequence_learning_exp,2024.1.5,None,2024-10-17 09h18.48.572051 +0530,
50,c,36,2,146,2,,,,,349.13874439999927,,349.1165963000385,349.13874439999927,350.1399956999812,350.1399956999812,350.1399956999812,350.1399956999812,350.17341789999045,351.14127869997174,351.14127869997174,351.48342790000606,c,1,0.33378690003883094,None,686082,001,2024-10-17_09h18.40.773,motor_sequence_learning_exp,2024.1.5,None,2024-10-17 09h18.48.572051 +0530,
-150,z,36,3,147,3,,,,,351.5084543999983,,351.48603410006035,351.5084543999983,352.50922420003917,352.50922420003917,352.50922420003917,352.50922420003917,352.54255680006463,353.51045529998373,353.51045529998373,353.78579860005993,z,1,0.2705682000378147,None,686082,001,2024-10-17_09h18.40.773,motor_sequence_learning_exp,2024.1.5,None,2024-10-17 09h18.48.572051 +0530,
-50,x,37,0,148,0,,,,,353.8108677000273,,353.7883742999984,353.8108677000273,354.8116701999679,354.8116701999679,354.8116701999679,354.8116701999679,354.84498609998263,355.81284300005063,355.81284300005063,356.27171660005115,x,1,0.4365108000347391,None,686082,001,2024-10-17_09h18.40.773,motor_sequence_learning_exp,2024.1.5,None,2024-10-17 09h18.48.572051 +0530,
150,v,37,1,149,1,,,,,356.296647900017,,356.2742836000398,356.296647900017,357.2977076000534,357.2977076000534,357.2977076000534,357.2977076000534,357.3310776000144,358.2989704000065,358.2989704000065,358.875066800043,v,1,0.5610975000308827,None,686082,001,2024-10-17_09h18.40.773,motor_sequence_learning_exp,2024.1.5,None,2024-10-17 09h18.48.572051 +0530,
50,c,37,2,150,2,,,,,358.8996352000395,,358.877688699984,358.8996352000395,359.9008007000666,359.9008007000666,359.9008007000666,359.9008007000666,359.93392380001023,360.9018150999909,360.9018150999909,361.2438902000431,c,1,0.3261907999403775,None,686082,001,2024-10-17_09h18.40.773,motor_sequence_learning_exp,2024.1.5,None,2024-10-17 09h18.48.572051 +0530,
-150,z,37,3,151,3,,,,,361.26897930004634,,361.2467028000392,361.26897930004634,362.2700387999648,362.2700387999648,362.2700387999648,362.2700387999648,362.303240200039,363.2710789999692,363.2710789999692,363.58011910005007,z,1,0.28429949993733317,None,686082,001,2024-10-17_09h18.40.773,motor_sequence_learning_exp,2024.1.5,None,2024-10-17 09h18.48.572051 +0530,
-50,x,38,0,152,0,,,,,363.60480990004726,,363.58269219996873,363.60480990004726,364.60595790005755,364.60595790005755,364.60595790005755,364.60595790005755,364.63907120004296,365.6069731999887,365.6069731999887,365.9158615999622,x,1,0.2911994999740273,None,686082,001,2024-10-17_09h18.40.773,motor_sequence_learning_exp,2024.1.5,None,2024-10-17 09h18.48.572051 +0530,
150,v,38,1,153,1,,,,,365.94073649996426,,365.9185210999567,365.94073649996426,366.9416232999647,366.9416232999647,366.9416232999647,366.9416232999647,366.97514460003003,367.94310929998755,367.94310929998755,368.35157820000313,v,1,0.3778258999809623,None,686082,001,2024-10-17_09h18.40.773,motor_sequence_learning_exp,2024.1.5,None,2024-10-17 09h18.48.572051 +0530,
50,c,38,2,154,2,,,,,368.37670650007203,,368.35418709996156,368.37670650007203,369.37768240005244,369.37768240005244,369.37768240005244,369.37768240005244,369.4109792000381,370.37894389999565,370.37894389999565,370.78788209997583,c,1,0.3898054000455886,None,686082,001,2024-10-17_09h18.40.773,motor_sequence_learning_exp,2024.1.5,None,2024-10-17 09h18.48.572051 +0530,
-150,z,38,3,155,3,,,,,370.8126041999785,,370.79051379999146,370.8126041999785,371.813474799972,371.813474799972,371.813474799972,371.813474799972,371.8473810000578,372.8148333999561,372.8148333999561,373.0901807000628,z,1,0.24291699996683747,None,686082,001,2024-10-17_09h18.40.773,motor_sequence_learning_exp,2024.1.5,None,2024-10-17 09h18.48.572051 +0530,
-50,x,39,0,156,0,,,,,373.1152352000354,,373.09281970001757,373.1152352000354,374.11621919996105,374.11621919996105,374.11621919996105,374.11621919996105,374.149773000041,375.11741710000206,375.11741710000206,375.4926948000211,x,1,0.357658899971284,None,686082,001,2024-10-17_09h18.40.773,motor_sequence_learning_exp,2024.1.5,None,2024-10-17 09h18.48.572051 +0530,
150,v,39,1,157,1,,,,,375.5176817000611,,375.49533349997364,375.5176817000611,376.5189145000186,376.5189145000186,376.5189145000186,376.5189145000186,376.5521199000068,377.52004029997624,377.52004029997624,377.82927700004075,v,1,0.27605580003000796,None,686082,001,2024-10-17_09h18.40.773,motor_sequence_learning_exp,2024.1.5,None,2024-10-17 09h18.48.572051 +0530,
50,c,39,2,158,2,,,,,377.85372560005635,,377.8321709999582,377.85372560005635,378.8546629999764,378.8546629999764,378.8546629999764,378.8546629999764,378.88810640003067,379.85587279999163,379.85587279999163,379.9643291999819,c,1,0.07451840001158416,None,686082,001,2024-10-17_09h18.40.773,motor_sequence_learning_exp,2024.1.5,None,2024-10-17 09h18.48.572051 +0530,
-150,z,39,3,159,3,,,,,379.9892809999874,,379.9668824999826,379.9892809999874,380.9907660000026,380.9907660000026,380.9907660000026,380.9907660000026,381.0237448000116,381.99160439998377,381.99160439998377,382.40091990004294,z,1,0.38669960002880543,None,686082,001,2024-10-17_09h18.40.773,motor_sequence_learning_exp,2024.1.5,None,2024-10-17 09h18.48.572051 +0530,
-50,x,40,0,160,0,,,,,382.4252813999774,,382.40350270003546,382.4252813999774,383.42631100001745,383.42631100001745,383.42631100001745,383.42631100001745,383.45971019996796,384.42765770002734,384.42765770002734,385.0698300000513,x,1,0.610416500014253,None,686082,001,2024-10-17_09h18.40.773,motor_sequence_learning_exp,2024.1.5,None,2024-10-17 09h18.48.572051 +0530,
150,v,40,1,161,1,,,,,385.095199399977,,385.0723882999737,385.095199399977,386.0961680000182,386.0961680000182,386.0961680000182,386.0961680000182,386.12944950000383,387.09717880003154,387.09717880003154,387.4393577000592,v,1,0.32957020006142557,None,686082,001,2024-10-17_09h18.40.773,motor_sequence_learning_exp,2024.1.5,None,2024-10-17 09h18.48.572051 +0530,
50,c,40,2,162,2,,,,,387.4642006000504,,387.44198000000324,387.4642006000504,388.4652044000104,388.4652044000104,388.4652044000104,388.4652044000104,388.49849310005084,389.4665211000247,389.4665211000247,389.8087601000443,c,1,0.32502430002205074,None,686082,001,2024-10-17_09h18.40.773,motor_sequence_learning_exp,2024.1.5,None,2024-10-17 09h18.48.572051 +0530,
-150,z,40,3,163,3,,,,,389.8335451000603,,389.8113316000672,389.8335451000603,390.834444200038,390.834444200038,390.834444200038,390.834444200038,390.8679089000216,391.8356046000263,391.8356046000263,391.9774317999836,z,1,0.11540639994200319,None,686082,001,2024-10-17_09h18.40.773,motor_sequence_learning_exp,2024.1.5,None,2024-10-17 09h18.48.572051 +0530,
-50,x,41,0,164,0,,,,,392.00254730007146,,391.9799775000429,392.00254730007146,392.98798440000974,392.98798440000974,392.98798440000974,392.98798440000974,393.00466550001875,394.0047091000015,394.0047091000015,394.4142630000133,x,1,0.40782939991913736,None,686082,001,2024-10-17_09h18.40.773,motor_sequence_learning_exp,2024.1.5,None,2024-10-17 09h18.48.572051 +0530,
150,v,41,1,165,1,,,,,394.438435100019,,394.4168098999653,394.438435100019,395.43946490006056,395.43946490006056,395.43946490006056,395.43946490006056,395.47285819996614,396.440972100012,396.440972100012,396.783255700022,v,1,0.3364419999998063,None,686082,001,2024-10-17_09h18.40.773,motor_sequence_learning_exp,2024.1.5,None,2024-10-17 09h18.48.572051 +0530,
50,c,41,2,166,2,,,,,396.80771109997295,,396.7858303000685,396.80771109997295,397.80888580007013,397.80888580007013,397.80888580007013,397.80888580007013,397.84216210001614,398.8100066999905,398.8100066999905,399.31909460003953,c,1,0.505013499991037,None,686082,001,2024-10-17_09h18.40.773,motor_sequence_learning_exp,2024.1.5,None,2024-10-17 09h18.48.572051 +0530,
-150,z,41,3,167,3,,,,,399.344426900032,,399.3216121000005,399.344426900032,400.34513070003595,400.34513070003595,400.34513070003595,400.34513070003595,400.3782094999915,401.34621530002914,401.34621530002914,401.6884468999924,z,1,0.32932609994895756,None,686082,001,2024-10-17_09h18.40.773,motor_sequence_learning_exp,2024.1.5,None,2024-10-17 09h18.48.572051 +0530,
-50,x,42,0,168,0,,,,,401.7131661999738,,401.6910079000518,401.7131661999738,402.7141840000404,402.7141840000404,402.7141840000404,402.7141840000404,402.74755750002805,403.71545580006205,403.71545580006205,404.1241844999604,x,1,0.39302129996940494,None,686082,001,2024-10-17_09h18.40.773,motor_sequence_learning_exp,2024.1.5,None,2024-10-17 09h18.48.572051 +0530,
150,v,42,1,169,1,,,,,404.1491423000116,,404.12699749995954,404.1491423000116,405.1502226999728,405.1502226999728,405.1502226999728,405.1502226999728,405.183559600031,406.15146530000493,406.15146530000493,406.5268100000685,v,1,0.3597331000491977,None,686082,001,2024-10-17_09h18.40.773,motor_sequence_learning_exp,2024.1.5,None,2024-10-17 09h18.48.572051 +0530,
50,c,42,2,170,2,,,,,406.5517007999588,,406.5293901000405,406.5517007999588,407.5528652999783,407.5528652999783,407.5528652999783,407.5528652999783,407.586176599958,408.5540721999714,408.5540721999714,408.5961541000288,c,1,0.009831500006839633,None,686082,001,2024-10-17_09h18.40.773,motor_sequence_learning_exp,2024.1.5,None,2024-10-17 09h18.48.572051 +0530,
-150,z,42,3,171,3,,,,,408.62073189998046,,408.598763099988,408.62073189998046,409.62193240004126,409.62193240004126,409.62193240004126,409.62193240004126,409.65528249996714,410.622917199973,410.622917199973,411.16590969997924,z,1,0.5306337000802159,None,686082,001,2024-10-17_09h18.40.773,motor_sequence_learning_exp,2024.1.5,None,2024-10-17 09h18.48.572051 +0530,
-50,x,43,0,172,0,,,,,411.1902649999829,,411.168537999969,411.1902649999829,412.1917301999638,412.1917301999638,412.1917301999638,412.1917301999638,412.22418600006495,413.19294690003153,413.19294690003153,413.5346665000543,x,1,0.32651129993610084,None,686082,001,2024-10-17_09h18.40.773,motor_sequence_learning_exp,2024.1.5,None,2024-10-17 09h18.48.572051 +0530,
150,v,43,1,173,1,,,,,413.5594389999751,,413.5372341000475,413.5594389999751,414.56049369997345,414.56049369997345,414.56049369997345,414.56049369997345,414.59381069999654,415.56172600004356,415.56172600004356,415.87049750005826,v,1,0.30614730005618185,None,686082,001,2024-10-17_09h18.40.773,motor_sequence_learning_exp,2024.1.5,None,2024-10-17 09h18.48.572051 +0530,
50,c,43,2,174,2,,,,,415.8953907999676,,415.8732137000188,415.8953907999676,416.8965154000325,416.8965154000325,416.8965154000325,416.8965154000325,416.92978410003707,417.8975984000135,417.8975984000135,418.2402417999692,c,1,0.3314322999212891,None,686082,001,2024-10-17_09h18.40.773,motor_sequence_learning_exp,2024.1.5,None,2024-10-17 09h18.48.572051 +0530,
-150,z,43,3,175,3,,,,,418.2646501000272,,418.2428309000097,418.2646501000272,419.2655292999698,419.2655292999698,419.2655292999698,419.2655292999698,419.2988730999641,420.26692940003704,420.26692940003704,420.44255589996465,z,1,0.16462229995522648,None,686082,001,2024-10-17_09h18.40.773,motor_sequence_learning_exp,2024.1.5,None,2024-10-17 09h18.48.572051 +0530,
-50,x,44,0,176,0,,,,,420.4669300999958,,420.44508049997967,420.4669300999958,421.4681283000391,421.4681283000391,421.4681283000391,421.4681283000391,421.5015001000138,422.46917190006934,422.46917190006934,422.94515889999457,x,1,0.44831270002759993,None,686082,001,2024-10-17_09h18.40.773,motor_sequence_learning_exp,2024.1.5,None,2024-10-17 09h18.48.572051 +0530,
150,v,44,1,177,1,,,,,422.97016310004983,,422.94774670002516,422.97016310004983,423.97065929998644,423.97065929998644,423.97065929998644,423.97065929998644,424.0041327000363,424.972137200064,424.972137200064,425.1142830000026,v,1,0.1339299000101164,None,686082,001,2024-10-17_09h18.40.773,motor_sequence_learning_exp,2024.1.5,None,2024-10-17 09h18.48.572051 +0530,
50,c,44,2,178,2,,,,,425.1388272000477,,425.11678330006544,425.1388272000477,426.139691999997,426.139691999997,426.139691999997,426.139691999997,426.17323890002444,427.1410155000631,427.1410155000631,427.5503921000054,c,1,0.39937839994672686,None,686082,001,2024-10-17_09h18.40.773,motor_sequence_learning_exp,2024.1.5,None,2024-10-17 09h18.48.572051 +0530,
-150,z,44,3,179,3,,,,,427.57479790004436,,427.5529217000585,427.57479790004436,428.57570599997416,428.57570599997416,428.57570599997416,428.57570599997416,428.60906030004844,429.57718210003804,429.57718210003804,429.88558670005295,z,1,0.2926830999786034,None,686082,001,2024-10-17_09h18.40.773,motor_sequence_learning_exp,2024.1.5,None,2024-10-17 09h18.48.572051 +0530,
-50,x,45,0,180,0,,,,,429.9106424000347,,429.88816460000817,429.9106424000347,430.9116535000503,430.9116535000503,430.9116535000503,430.9116535000503,430.94498410006054,431.9129197000293,431.9129197000293,432.2214226999786,x,1,0.2812835000222549,None,686082,001,2024-10-17_09h18.40.773,motor_sequence_learning_exp,2024.1.5,None,2024-10-17 09h18.48.572051 +0530,
150,v,45,1,181,1,,,,,432.2465778000187,,432.224431599956,432.2465778000187,433.2475915000541,433.2475915000541,433.2475915000541,433.2475915000541,433.2808875000337,434.24872899998445,434.24872899998445,434.5241751000285,v,1,0.2603064998984337,None,686082,001,2024-10-17_09h18.40.773,motor_sequence_learning_exp,2024.1.5,None,2024-10-17 09h18.48.572051 +0530,
50,c,45,2,182,2,,,,,434.54905280005187,,434.52670689998195,434.54905280005187,435.55017599998973,435.55017599998973,435.55017599998973,435.55017599998973,435.5834682000568,436.5513182999566,436.5513182999566,436.82679419999477,c,1,0.2735120999859646,None,686082,001,2024-10-17_09h18.40.773,motor_sequence_learning_exp,2024.1.5,None,2024-10-17 09h18.48.572051 +0530,
-150,z,45,3,183,3,,,,,436.85157010005787,,436.82937120005954,436.85157010005787,437.8529373999918,437.8529373999918,437.8529373999918,437.8529373999918,437.8860290000448,438.8537791999988,438.8537791999988,439.14654320001137,z,1,0.2827983999159187,None,686082,001,2024-10-17_09h18.40.773,motor_sequence_learning_exp,2024.1.5,None,2024-10-17 09h18.48.572051 +0530,
-50,x,46,0,184,0,,,,,439.17148879996967,,439.1490243000444,439.17148879996967,440.1717815999873,440.1717815999873,440.1717815999873,440.1717815999873,440.2051006000256,441.17308700003196,441.17308700003196,441.48166190006305,x,1,0.2771484999684617,None,686082,001,2024-10-17_09h18.40.773,motor_sequence_learning_exp,2024.1.5,None,2024-10-17 09h18.48.572051 +0530,
150,v,46,1,185,1,,,,,441.50682150002103,,441.48452980001457,441.50682150002103,442.507817100035,442.507817100035,442.507817100035,442.507817100035,442.54114880005363,443.5103930999758,443.5103930999758,443.8510782000376,v,1,0.3299352000467479,None,686082,001,2024-10-17_09h18.40.773,motor_sequence_learning_exp,2024.1.5,None,2024-10-17 09h18.48.572051 +0530,
50,c,46,2,186,2,,,,,443.87592919997405,,443.8536458000308,443.87592919997405,444.8773397000041,444.8773397000041,444.8773397000041,444.8773397000041,444.9105790000176,445.87821900006384,445.87821900006384,446.0205819000257,c,1,0.11123310006223619,None,686082,001,2024-10-17_09h18.40.773,motor_sequence_learning_exp,2024.1.5,None,2024-10-17 09h18.48.572051 +0530,
-150,z,46,3,187,3,,,,,446.0450672999723,,446.0231137999799,446.0450672999723,447.04600660002325,447.04600660002325,447.04600660002325,447.04600660002325,447.0794474000577,448.047485099989,448.047485099989,448.5897356000496,z,1,0.5227106999373063,None,686082,001,2024-10-17_09h18.40.773,motor_sequence_learning_exp,2024.1.5,None,2024-10-17 09h18.48.572051 +0530,
-50,x,47,0,188,0,,,,,448.61450280004647,,448.59229070006404,448.61450280004647,449.6157516000094,449.6157516000094,449.6157516000094,449.6157516000094,449.64895509998314,450.61691229999997,450.61691229999997,450.9255492000375,x,1,0.2979650000343099,None,686082,001,2024-10-17_09h18.40.773,motor_sequence_learning_exp,2024.1.5,None,2024-10-17 09h18.48.572051 +0530,
150,v,47,1,189,1,,,,,450.950382500072,,450.92809309996665,450.950382500072,451.9515164999757,451.9515164999757,451.9515164999757,451.9515164999757,451.98486800002865,452.95262920006644,452.95262920006644,453.22815640002955,v,1,0.25339159998111427,None,686082,001,2024-10-17_09h18.40.773,motor_sequence_learning_exp,2024.1.5,None,2024-10-17 09h18.48.572051 +0530,
50,c,47,2,190,2,,,,,453.2529673000099,,453.23070800001733,453.2529673000099,454.25407400005497,454.25407400005497,454.25407400005497,454.25407400005497,454.2873902999563,455.2551913000643,455.2551913000643,455.5641417000443,c,1,0.3026909000473097,None,686082,001,2024-10-17_09h18.40.773,motor_sequence_learning_exp,2024.1.5,None,2024-10-17 09h18.48.572051 +0530,
-150,z,47,3,191,3,,,,,455.5888445000164,,455.5670542999869,455.5888445000164,456.6063665000256,456.6063665000256,456.6063665000256,456.6063665000256,456.6063665000256,457.60791260004044,457.60791260004044,457.9831319999648,z,1,0.35458049993030727,None,686082,001,2024-10-17_09h18.40.773,motor_sequence_learning_exp,2024.1.5,None,2024-10-17 09h18.48.572051 +0530,
-50,x,48,0,192,0,,,,,458.00790650001727,,457.98575520003214,458.00790650001727,459.00918210006785,459.00918210006785,459.00918210006785,459.00918210006785,459.04255779995583,460.0102940000361,460.0102940000361,460.4192771000089,x,1,0.3814340999815613,None,686082,001,2024-10-17_09h18.40.773,motor_sequence_learning_exp,2024.1.5,None,2024-10-17 09h18.48.572051 +0530,
150,v,48,1,193,1,,,,,460.44415950006805,,460.4218278999906,460.44415950006805,461.4452872000402,461.4452872000402,461.4452872000402,461.4452872000402,461.4786055999575,462.4462906999979,462.4462906999979,462.6883111000061,v,1,0.22268589993473142,None,686082,001,2024-10-17_09h18.40.773,motor_sequence_learning_exp,2024.1.5,None,2024-10-17 09h18.48.572051 +0530,
50,c,48,2,194,2,,,,,462.7132869999623,,462.6908415000653,462.7132869999623,463.714265699964,463.714265699964,463.714265699964,463.714265699964,463.7475615000585,464.7321632000385,464.7321632000385,465.0744230999844,c,1,0.3093882000539452,None,686082,001,2024-10-17_09h18.40.773,motor_sequence_learning_exp,2024.1.5,None,2024-10-17 09h18.48.572051 +0530,
-150,z,48,3,195,3,,,,,465.099279499962,,465.0771110999631,465.099279499962,466.1003592000343,466.1003592000343,466.1003592000343,466.1003592000343,466.1336817999836,467.10154589999,467.10154589999,467.81119460007176,z,1,0.6889538000104949,None,686082,001,2024-10-17_09h18.40.773,motor_sequence_learning_exp,2024.1.5,None,2024-10-17 09h18.48.572051 +0530,
-50,x,49,0,196,0,,,,,467.8359167999588,,467.8139167999616,467.8359167999588,468.8364496000577,468.8364496000577,468.8364496000577,468.8364496000577,468.8699277000269,469.83772750000935,469.83772750000935,470.146602599998,x,1,0.29990610003005713,None,686082,001,2024-10-17_09h18.40.773,motor_sequence_learning_exp,2024.1.5,None,2024-10-17 09h18.48.572051 +0530,
150,v,49,1,197,1,,,,,470.17139390006196,,470.14919470006134,470.17139390006196,471.1725790000055,471.1725790000055,471.1725790000055,471.1725790000055,471.20597010001075,472.17370789998677,472.17370789998677,472.78265970002394,v,1,0.5967820000369102,None,686082,001,2024-10-17_09h18.40.773,motor_sequence_learning_exp,2024.1.5,None,2024-10-17 09h18.48.572051 +0530,
50,c,49,2,198,2,,,,,472.8077132999897,,472.7852450000355,472.8077132999897,473.8086004999932,473.8086004999932,473.8086004999932,473.8086004999932,473.84192250005435,474.8100258000195,474.8100258000195,475.118928699987,c,1,0.2890862999483943,None,686082,001,2024-10-17_09h18.40.773,motor_sequence_learning_exp,2024.1.5,None,2024-10-17 09h18.48.572051 +0530,
-150,z,49,3,199,3,,,,,475.14362820005044,,475.1214357999852,475.14362820005044,476.1444915999891,476.1444915999891,476.1444915999891,476.1444915999891,476.1780797999818,477.1625528000295,477.1625528000295,477.47159199998714,z,1,0.28451959998346865,None,686082,001,2024-10-17_09h18.40.773,motor_sequence_learning_exp,2024.1.5,None,2024-10-17 09h18.48.572051 +0530,
-50,x,,,,,0,0,0,0,477.5129516000161,,477.48880270007066,477.5129516000161,478.4973037999589,478.4973037999589,478.4973037999589,478.4973037999589,478.5306120000314,479.4988419000292,479.4988419000292,479.57405669998843,x,1,0.06007909995969385,None,686082,001,2024-10-17_09h18.40.773,motor_sequence_learning_exp,2024.1.5,None,2024-10-17 09h18.48.572051 +0530,
-50,x,,,,,0,1,1,0,479.59850369999185,,479.5774536000099,479.59850369999185,480.599310999969,480.599310999969,480.599310999969,480.599310999969,480.616900300025,481.6173432000214,481.6173432000214,481.8927498999983,v,0,0.26240380003582686,None,686082,001,2024-10-17_09h18.40.773,motor_sequence_learning_exp,2024.1.5,None,2024-10-17 09h18.48.572051 +0530,
50,c,,,,,0,2,2,2,481.91769460006617,,481.89525659999344,481.91769460006617,482.91862790007144,482.91862790007144,482.91862790007144,482.91862790007144,482.9521965000313,483.9198507000692,483.9198507000692,484.461939800065,v,0,0.5392806000309065,None,686082,001,2024-10-17_09h18.40.773,motor_sequence_learning_exp,2024.1.5,None,2024-10-17 09h18.48.572051 +0530,
150,v,,,,,0,3,3,1,484.48716650006827,,484.4646402000217,484.48716650006827,485.48799289995804,485.48799289995804,485.48799289995804,485.48799289995804,485.52143590000924,486.4892430000473,486.4892430000473,487.7327046999708,v,1,1.2127321000443771,None,686082,001,2024-10-17_09h18.40.773,motor_sequence_learning_exp,2024.1.5,None,2024-10-17 09h18.48.572051 +0530,
-50,x,,,,,1,0,4,0,487.75737800006755,,487.73527030006517,487.75737800006755,488.7584920000518,488.7584920000518,488.7584920000518,488.7584920000518,488.79183590004686,489.75954710005317,489.75954710005317,490.6547393000219,x,1,0.8687248000642285,None,686082,001,2024-10-17_09h18.40.773,motor_sequence_learning_exp,2024.1.5,None,2024-10-17 09h18.48.572051 +0530,
150,v,,,,,1,1,5,1,490.67714459996205,,490.6573342999909,490.67714459996205,491.67812160006724,491.67812160006724,491.67812160006724,491.67812160006724,491.71149130002595,492.67941099999007,492.67941099999007,493.2888306999812,v,1,0.5902550000464544,None,686082,001,2024-10-17_09h18.40.773,motor_sequence_learning_exp,2024.1.5,None,2024-10-17 09h18.48.572051 +0530,
50,c,,,,,1,2,6,2,493.31344970001373,,493.2914047000231,493.31344970001373,494.31442640000023,494.31442640000023,494.31442640000023,494.31442640000023,494.3478040000191,495.31569359998684,495.31569359998684,496.02490930003114,c,1,0.6976000999566168,None,686082,001,2024-10-17_09h18.40.773,motor_sequence_learning_exp,2024.1.5,None,2024-10-17 09h18.48.572051 +0530,
-50,x,,,,,1,3,7,0,496.0497317999834,,496.0275752999587,496.0497317999834,497.0507085999707,497.0507085999707,497.0507085999707,497.0507085999707,497.0842894000234,498.0518920000177,498.0518920000177,498.694740200066,x,1,0.6198361999122426,None,686082,001,2024-10-17_09h18.40.773,motor_sequence_learning_exp,2024.1.5,None,2024-10-17 09h18.48.572051 +0530,
-150,z,,,,,2,0,8,3,498.7195384000661,,498.69729420007206,498.7195384000661,499.7203819999704,499.7203819999704,499.7203819999704,499.7203819999704,499.75375090003945,500.7215360000264,500.7215360000264,501.3640178999631,z,1,0.6078608999960124,None,686082,001,2024-10-17_09h18.40.773,motor_sequence_learning_exp,2024.1.5,None,2024-10-17 09h18.48.572051 +0530,
50,c,,,,,2,1,9,2,501.3889461000217,,501.366733700037,501.3889461000217,502.3899185999762,502.3899185999762,502.3899185999762,502.3899185999762,502.42325420002453,503.3911260999739,503.3911260999739,504.23443880002014,c,1,0.8142374000744894,None,686082,001,2024-10-17_09h18.40.773,motor_sequence_learning_exp,2024.1.5,None,2024-10-17 09h18.48.572051 +0530,
50,c,,,,,2,2,10,2,504.25886020006146,,504.23699959996156,504.25886020006146,505.2599218999967,505.2599218999967,505.2599218999967,505.2599218999967,505.2932157999603,506.26102390000597,506.26102390000597,506.8708065999672,c,1,0.5852975000161678,None,686082,001,2024-10-17_09h18.40.773,motor_sequence_learning_exp,2024.1.5,None,2024-10-17 09h18.48.572051 +0530,
50,c,,,,,2,3,11,2,506.89504049997777,,506.87338860007003,506.89504049997777,507.89599550003186,507.89599550003186,507.89599550003186,507.89599550003186,507.9293917999603,508.8971583000384,508.8971583000384,509.6061757999705,c,1,0.6775104000698775,None,686082,001,2024-10-17_09h18.40.773,motor_sequence_learning_exp,2024.1.5,None,2024-10-17 09h18.48.572051 +0530,
-50,x,,,,,3,0,12,0,509.63121040002443,,509.60890039999504,509.63121040002443,510.63221159996465,510.63221159996465,510.63221159996465,510.63221159996465,510.6657720999792,511.6335092000663,511.6335092000663,512.5096846000524,x,1,0.8557580000488088,None,686082,001,2024-10-17_09h18.40.773,motor_sequence_learning_exp,2024.1.5,None,2024-10-17 09h18.48.572051 +0530,
-50,x,,,,,3,1,13,0,512.5344041000353,,512.5122997000581,512.5344041000353,513.5355815000366,513.5355815000366,513.5355815000366,513.5355815000366,513.5689704000251,514.5366962000262,514.5366962000262,515.2791638000635,x,1,0.7139846000354737,None,686082,001,2024-10-17_09h18.40.773,motor_sequence_learning_exp,2024.1.5,None,2024-10-17 09h18.48.572051 +0530,
-150,z,,,,,3,2,14,3,515.304054300068,,515.2816615999909,515.304054300068,516.3050782000646,516.3050782000646,516.3050782000646,516.3050782000646,516.3384351000423,517.3064420999726,517.3064420999726,517.8820458999835,z,1,0.558394500054419,None,686082,001,2024-10-17_09h18.40.773,motor_sequence_learning_exp,2024.1.5,None,2024-10-17 09h18.48.572051 +0530,
50,c,,,,,3,3,15,2,517.9069118000334,,517.8846304999897,517.9069118000334,518.9080015000654,518.9080015000654,518.9080015000654,518.9080015000654,518.9413953999756,519.9092271999689,519.9092271999689,520.7849044000031,c,1,0.859309499966912,None,686082,001,2024-10-17_09h18.40.773,motor_sequence_learning_exp,2024.1.5,None,2024-10-17 09h18.48.572051 +0530,
-50,x,,,,,4,0,16,0,520.8101192000322,,520.7874529999681,520.8101192000322,521.8113532999996,521.8113532999996,521.8113532999996,521.8113532999996,521.8444276000373,522.8125083000632,522.8125083000632,523.4880828000605,x,1,0.6650909000309184,None,686082,001,2024-10-17_09h18.40.773,motor_sequence_learning_exp,2024.1.5,None,2024-10-17 09h18.48.572051 +0530,
-50,x,,,,,4,1,17,0,523.5132032000693,,523.49065469997,523.5132032000693,524.5141864999896,524.5141864999896,524.5141864999896,524.5141864999896,524.5477596999845,525.5153959000017,525.5153959000017,526.0916341000702,x,1,0.5735131000401452,None,686082,001,2024-10-17_09h18.40.773,motor_sequence_learning_exp,2024.1.5,None,2024-10-17 09h18.48.572051 +0530,
-50,x,,,,,4,2,18,0,526.1160448000301,,526.0942331000697,526.1160448000301,527.1170292999595,527.1170292999595,527.1170292999595,527.1170292999595,527.150309800054,528.1350413999753,528.1350413999753,528.543998499983,x,1,0.4023989000124857,None,686082,001,2024-10-17_09h18.40.773,motor_sequence_learning_exp,2024.1.5,None,2024-10-17 09h18.48.572051 +0530,
-50,x,,,,,4,3,19,0,528.5686206000391,,528.5465743000386,528.5686206000391,529.5698522999883,529.5698522999883,529.5698522999883,529.5698522999883,529.6031698000152,530.5709946000716,530.5709946000716,531.0133109999588,x,1,0.43279470002744347,None,686082,001,2024-10-17_09h18.40.773,motor_sequence_learning_exp,2024.1.5,None,2024-10-17 09h18.48.572051 +0530,
-50,x,,,,,5,0,20,0,531.0381842000643,,531.0160174999619,531.0381842000643,532.0390110999579,532.0390110999579,532.0390110999579,532.0390110999579,532.0723589999834,533.0397591000656,533.0397591000656,533.4488573999843,x,1,0.3835899999830872,None,686082,001,2024-10-17_09h18.40.773,motor_sequence_learning_exp,2024.1.5,None,2024-10-17 09h18.48.572051 +0530,
-50,x,,,,,5,1,21,0,533.4738604000304,,533.4514090999728,533.4738604000304,534.4751222999766,534.4751222999766,534.4751222999766,534.4751222999766,534.5083538000472,535.4763215000276,535.4763215000276,535.9184942999855,x,1,0.4133033000398427,None,686082,001,2024-10-17_09h18.40.773,motor_sequence_learning_exp,2024.1.5,None,2024-10-17 09h18.48.572051 +0530,
-150,z,,,,,5,2,22,3,535.9433386999881,,535.9210801000008,535.9433386999881,536.9444230999798,536.9444230999798,536.9444230999798,536.9444230999798,536.9777653999627,537.9457972999662,537.9457972999662,538.5545989000238,z,1,0.5952214000280946,None,686082,001,2024-10-17_09h18.40.773,motor_sequence_learning_exp,2024.1.5,None,2024-10-17 09h18.48.572051 +0530,
-150,z,,,,,5,3,23,3,538.5795864000684,,538.5571587999584,538.5795864000684,539.5808697000612,539.5808697000612,539.5808697000612,539.5808697000612,539.6142560000299,540.5819144999841,540.5819144999841,540.99080889998,z,1,0.39382060000207275,None,686082,001,2024-10-17_09h18.40.773,motor_sequence_learning_exp,2024.1.5,None,2024-10-17 09h18.48.572051 +0530,
50,c,,,,,6,0,24,2,541.0156866000034,,540.9933277000673,541.0156866000034,542.0334959999891,542.0334959999891,542.0334959999891,542.0334959999891,542.0334959999891,543.0345981999999,543.0345981999999,544.1107153999619,c,1,1.0578034999780357,None,686082,001,2024-10-17_09h18.40.773,motor_sequence_learning_exp,2024.1.5,None,2024-10-17 09h18.48.572051 +0530,
150,v,,,,,6,1,25,1,544.1357984000351,,544.1133437000681,544.1357984000351,545.136863199994,545.136863199994,545.136863199994,545.136863199994,545.1701681000413,546.1379783999873,546.1379783999873,546.746983799967,v,1,0.5854262000648305,None,686082,001,2024-10-17_09h18.40.773,motor_sequence_learning_exp,2024.1.5,None,2024-10-17 09h18.48.572051 +0530,
150,v,,,,,6,2,26,1,546.7717567000072,,546.7495780000463,546.7717567000072,547.7728632000508,547.7728632000508,547.7728632000508,547.7728632000508,547.8063895000378,548.7741552999942,548.7741552999942,549.4833511000033,v,1,0.6943474999861792,None,686082,001,2024-10-17_09h18.40.773,motor_sequence_learning_exp,2024.1.5,None,2024-10-17 09h18.48.572051 +0530,
50,c,,,,,6,3,27,2,549.5084270000225,,549.485896200058,549.5084270000225,550.5092411000514,550.5092411000514,550.5092411000514,550.5092411000514,550.542649500072,551.5106286000228,551.5106286000228,552.2365905999904,c,1,0.708723200019449,None,686082,001,2024-10-17_09h18.40.773,motor_sequence_learning_exp,2024.1.5,None,2024-10-17 09h18.48.572051 +0530,
50,c,,,,,7,0,28,2,552.2614164999686,,552.2391955000348,552.2614164999686,553.262434000033,553.262434000033,553.262434000033,553.262434000033,553.2957157000201,554.2636471999576,554.2636471999576,554.9058312000707,c,1,0.6324028000235558,None,686082,001,2024-10-17_09h18.40.773,motor_sequence_learning_exp,2024.1.5,None,2024-10-17 09h18.48.572051 +0530,
150,v,,,,,7,1,29,1,554.9306842000224,,554.9083775000181,554.9306842000224,555.9319225000218,555.9319225000218,555.9319225000218,555.9319225000218,555.9653504999587,556.9331834999612,556.9331834999612,557.54255750007,v,1,0.6053459000540897,None,686082,001,2024-10-17_09h18.40.773,motor_sequence_learning_exp,2024.1.5,None,2024-10-17 09h18.48.572051 +0530,
150,v,,,,,7,2,30,1,557.5671160999918,,557.5451364000328,557.5671160999918,558.568055300042,558.568055300042,558.568055300042,558.568055300042,558.6013422000688,559.5695023000007,559.5695023000007,560.1122117000632,v,1,0.525627400027588,None,686082,001,2024-10-17_09h18.40.773,motor_sequence_learning_exp,2024.1.5,None,2024-10-17 09h18.48.572051 +0530,
150,v,,,,,7,3,31,1,560.136685000034,,560.1147947000572,560.136685000034,561.1375927999616,561.1375927999616,561.1375927999616,561.1375927999616,561.1710122000659,562.1391075999709,562.1391075999709,562.6475208000047,v,1,0.4907626999774948,None,686082,001,2024-10-17_09h18.40.773,motor_sequence_learning_exp,2024.1.5,None,2024-10-17 09h18.48.572051 +0530,
-50,x,,,,,8,0,32,0,562.6727862000698,,562.6502527999692,562.6727862000698,563.6736006999854,563.6736006999854,563.6736006999854,563.6736006999854,563.7069384000497,564.6914818000514,564.6914818000514,565.133880599984,x,1,0.4088417000602931,None,686082,001,2024-10-17_09h18.40.773,motor_sequence_learning_exp,2024.1.5,None,2024-10-17 09h18.48.572051 +0530,
150,v,,,,,8,1,33,1,565.1587022000458,,565.1364719000412,565.1587022000458,566.1599067000207,566.1599067000207,566.1599067000207,566.1599067000207,566.1930499000009,567.1775585999712,567.1775585999712,567.7530185000505,v,1,0.5558738000690937,None,686082,001,2024-10-17_09h18.40.773,motor_sequence_learning_exp,2024.1.5,None,2024-10-17 09h18.48.572051 +0530,
150,v,,,,,8,2,34,1,567.7781777000055,,567.7556117000058,567.7781777000055,568.779144900036,568.779144900036,568.779144900036,568.779144900036,568.8125649000285,569.7804797000717,569.7804797000717,570.289318199968,v,1,0.49562739999964833,None,686082,001,2024-10-17_09h18.40.773,motor_sequence_learning_exp,2024.1.5,None,2024-10-17 09h18.48.572051 +0530,
50,c,,,,,8,3,35,2,570.3145858000498,,570.2918990000617,570.3145858000498,571.3154749000678,571.3154749000678,571.3154749000678,571.3154749000678,571.3488491000608,572.3165789999766,572.3165789999766,572.9922679000301,c,1,0.6451379000209272,None,686082,001,2024-10-17_09h18.40.773,motor_sequence_learning_exp,2024.1.5,None,2024-10-17 09h18.48.572051 +0530,
-150,z,,,,,9,0,36,3,573.0174307000125,,572.9950630000094,573.0174307000125,574.0183122999733,574.0183122999733,574.0183122999733,574.0183122999733,574.0516393999569,575.0195982999867,575.0195982999867,575.5285161000211,z,1,0.48427470005117357,None,686082,001,2024-10-17_09h18.40.773,motor_sequence_learning_exp,2024.1.5,None,2024-10-17 09h18.48.572051 +0530,
150,v,,,,,9,1,37,1,575.5533166000387,,575.5311033000471,575.5533166000387,576.5543925999664,576.5543925999664,576.5543925999664,576.5543925999664,576.587758300011,577.5555763000157,577.5555763000157,578.0650064999936,v,1,0.4904744999948889,None,686082,001,2024-10-17_09h18.40.773,motor_sequence_learning_exp,2024.1.5,None,2024-10-17 09h18.48.572051 +0530,
50,c,,,,,9,2,38,2,578.0898141000653,,578.0675727999769,578.0898141000653,579.0904651000164,579.0904651000164,579.0904651000164,579.0904651000164,579.1238327999599,580.0916874000104,580.0916874000104,580.7678438000148,c,1,0.6734417000552639,None,686082,001,2024-10-17_09h18.40.773,motor_sequence_learning_exp,2024.1.5,None,2024-10-17 09h18.48.572051 +0530,
-150,z,,,,,9,3,39,3,580.7924141000258,,580.770455299993,580.7924141000258,581.7934772999724,581.7934772999724,581.7934772999724,581.7934772999724,581.8268513999647,582.7946885999991,582.7946885999991,583.3381540999981,z,1,0.5305880999658257,None,686082,001,2024-10-17_09h18.40.773,motor_sequence_learning_exp,2024.1.5,None,2024-10-17 09h18.48.572051 +0530,
150,v,,,,,10,0,40,1,583.3618513999972,,583.3407055999851,583.3618513999972,584.3629171999637,584.3629171999637,584.3629171999637,584.3629171999637,584.3963127000025,585.3641310000094,585.3641310000094,585.8732953000581,v,1,0.48532480001449585,None,686082,001,2024-10-17_09h18.40.773,motor_sequence_learning_exp,2024.1.5,None,2024-10-17 09h18.48.572051 +0530,
150,v,,,,,10,1,41,1,585.8981003999943,,585.8760189999593,585.8981003999943,586.8992547000526,586.8992547000526,586.8992547000526,586.8992547000526,586.9326015000697,587.9003620999865,587.9003620999865,588.4426713000285,v,1,0.5395474000833929,None,686082,001,2024-10-17_09h18.40.773,motor_sequence_learning_exp,2024.1.5,None,2024-10-17 09h18.48.572051 +0530,
-50,x,,,,,10,2,42,0,588.4675138000166,,588.4452862000326,588.4675138000166,589.4688554999884,589.4688554999884,589.4688554999884,589.4688554999884,589.5019791000523,590.4541581000667,590.4541581000667,590.9122785000363,x,1,0.43140530004166067,None,686082,001,2024-10-17_09h18.40.773,motor_sequence_learning_exp,2024.1.5,None,2024-10-17 09h18.48.572051 +0530,
150,v,,,,,10,3,43,1,590.9369575000601,,590.9148273000028,590.9369575000601,591.9381353000645,591.9381353000645,591.9381353000645,591.9381353000645,591.9718423000304,592.9391654999927,592.9391654999927,593.382152599981,v,1,0.43221090000588447,None,686082,001,2024-10-17_09h18.40.773,motor_sequence_learning_exp,2024.1.5,None,2024-10-17 09h18.48.572051 +0530,
150,v,,,,,11,0,44,1,593.4063102999935,,593.3847376999911,593.4063102999935,594.4074376999633,594.4074376999633,594.4074376999633,594.4074376999633,594.4407152000349,595.4085199000547,595.4085199000547,595.8509552000323,v,1,0.43148110003676265,None,686082,001,2024-10-17_09h18.40.773,motor_sequence_learning_exp,2024.1.5,None,2024-10-17 09h18.48.572051 +0530,
-150,z,,,,,11,1,45,3,595.8756667000707,,595.8535742000677,595.8756667000707,596.8766857000301,596.8766857000301,596.8766857000301,596.8766857000301,596.9102447000332,597.8780810000608,597.8780810000608,598.3876309000188,z,1,0.5041247000917792,None,686082,001,2024-10-17_09h18.40.773,motor_sequence_learning_exp,2024.1.5,None,2024-10-17 09h18.48.572051 +0530,
150,v,,,,,11,2,46,1,598.411815600004,,598.3902289000107,598.411815600004,599.4130071999971,599.4130071999971,599.4130071999971,599.4130071999971,599.446358300047,600.4140401000623,600.4140401000623,600.856785699958,v,1,0.41751990001648664,None,686082,001,2024-10-17_09h18.40.773,motor_sequence_learning_exp,2024.1.5,None,2024-10-17 09h18.48.572051 +0530,
-50,x,,,,,11,3,47,0,600.881113099982,,600.8593277999898,600.881113099982,601.8821382999886,601.8821382999886,601.8821382999886,601.8821382999886,601.9154777000658,602.883376599988,602.883376599988,603.5594840999693,x,1,0.668169500073418,None,686082,001,2024-10-17_09h18.40.773,motor_sequence_learning_exp,2024.1.5,None,2024-10-17 09h18.48.572051 +0530,
50,c,,,,,12,0,48,2,603.5845122999744,,603.5620322000468,603.5845122999744,604.5854538000422,604.5854538000422,604.5854538000422,604.5854538000422,604.6185175999999,605.5863802999957,605.5863802999957,606.3293866000604,c,1,0.7254124999744818,None,686082,001,2024-10-17_09h18.40.773,motor_sequence_learning_exp,2024.1.5,None,2024-10-17 09h18.48.572051 +0530,
-50,x,,,,,12,1,49,0,606.3545668000588,,606.3319410000695,606.3545668000588,607.3390365999658,607.3390365999658,607.3390365999658,607.3390365999658,607.3556920000119,608.3559099000413,608.3559099000413,609.1318266000599,x,1,0.7455408000387251,None,686082,001,2024-10-17_09h18.40.773,motor_sequence_learning_exp,2024.1.5,None,2024-10-17 09h18.48.572051 +0530,
-50,x,,,,,12,2,50,0,609.15670339996,,609.1344098000554,609.15670339996,610.1578305000439,610.1578305000439,610.1578305000439,610.1578305000439,610.1909696999937,611.1590354000218,611.1590354000218,611.6681883999845,x,1,0.4809023999841884,None,686082,001,2024-10-17_09h18.40.773,motor_sequence_learning_exp,2024.1.5,None,2024-10-17 09h18.48.572051 +0530,
50,c,,,,,12,3,51,2,611.6929639000446,,611.6707468000241,611.6929639000446,612.6939099000301,612.6939099000301,612.6939099000301,612.6939099000301,612.7273350000614,613.6953532999614,613.6953532999614,614.5044474999886,c,1,0.7890364999184385,None,686082,001,2024-10-17_09h18.40.773,motor_sequence_learning_exp,2024.1.5,None,2024-10-17 09h18.48.572051 +0530,
-150,z,,,,,13,0,52,3,614.5294046000345,,614.507054900052,614.5294046000345,615.5304936000612,615.5304936000612,615.5304936000612,615.5304936000612,615.5638486000244,616.531598099973,616.531598099973,616.9741029000143,x,0,0.42043509997893125,None,686082,001,2024-10-17_09h18.40.773,motor_sequence_learning_exp,2024.1.5,None,2024-10-17 09h18.48.572051 +0530,
150,v,,,,,13,1,53,1,616.9987863999559,,616.9767094000708,616.9987863999559,617.9998697000556,617.9998697000556,617.9998697000556,617.9998697000556,618.0330638999585,619.0009640000062,619.0009640000062,619.7771138000535,v,1,0.7678062000777572,None,686082,001,2024-10-17_09h18.40.773,motor_sequence_learning_exp,2024.1.5,None,2024-10-17 09h18.48.572051 +0530,
150,v,,,,,13,2,54,1,619.8019681000151,,619.7797160999617,619.8019681000151,620.8027847000631,620.8027847000631,620.8027847000631,620.8027847000631,620.8361909000669,621.8041154000675,621.8041154000675,622.7803942000028,v,1,0.9626529000233859,None,686082,001,2024-10-17_09h18.40.773,motor_sequence_learning_exp,2024.1.5,None,2024-10-17 09h18.48.572051 +0530,
150,v,,,,,13,3,55,1,622.8050991999917,,622.7829738999717,622.8050991999917,623.8063283000374,623.8063283000374,623.8063283000374,623.8063283000374,623.8395944000222,624.8240390999708,624.8240390999708,625.4328627999639,v,1,0.5787051999941468,None,686082,001,2024-10-17_09h18.40.773,motor_sequence_learning_exp,2024.1.5,None,2024-10-17 09h18.48.572051 +0530,
-50,x,,,,,14,0,56,0,625.4580189000117,,625.435609200038,625.4580189000117,626.4590036000591,626.4590036000591,626.4590036000591,626.4590036000591,626.4922805000097,627.4768310000654,627.4768310000654,628.0862183000427,x,1,0.5773756999988109,None,686082,001,2024-10-17_09h18.40.773,motor_sequence_learning_exp,2024.1.5,None,2024-10-17 09h18.48.572051 +0530,
50,c,,,,,14,1,57,2,628.110899399966,,628.08874320006,628.110899399966,629.1129448000574,629.1129448000574,629.1129448000574,629.1129448000574,629.1453953000018,630.1133772999747,630.1133772999747,630.8195440999698,c,1,0.6754590000491589,None,686082,001,2024-10-17_09h18.40.773,motor_sequence_learning_exp,2024.1.5,None,2024-10-17 09h18.48.572051 +0530,
-50,x,,,,,14,2,58,0,630.8312419999857,,630.8222900000401,630.8312419999857,631.8482811000431,631.8482811000431,631.8482811000431,631.8482811000431,631.8482811000431,632.8495233999565,632.8495233999565,633.3559206000064,x,1,0.49361419992055744,None,686082,001,2024-10-17_09h18.40.773,motor_sequence_learning_exp,2024.1.5,None,2024-10-17 09h18.48.572051 +0530,
-150,z,,,,,14,3,59,3,633.3675532999914,,633.3574060000246,633.3675532999914,634.3843159000389,634.3843159000389,634.3843159000389,634.3843159000389,634.3843159000389,635.3857911999803,635.3857911999803,635.9618254000088,z,1,0.5730758999707177,None,686082,001,2024-10-17_09h18.40.773,motor_sequence_learning_exp,2024.1.5,None,2024-10-17 09h18.48.572051 +0530,
50,c,,,,,15,0,60,2,635.9863730999641,,635.9644155000569,635.9863730999641,636.9874405000592,636.9874405000592,636.9874405000592,636.9874405000592,637.0207865000702,637.988469599979,637.988469599979,638.798596000066,c,1,0.8035100999986753,None,686082,001,2024-10-17_09h18.40.773,motor_sequence_learning_exp,2024.1.5,None,2024-10-17 09h18.48.572051 +0530,
-150,z,,,,,15,1,61,3,638.8228443000698,,638.8011850999901,638.8228443000698,639.8238776000217,639.8238776000217,639.8238776000217,639.8238776000217,639.8571759000188,640.8249536000658,640.8249536000658,641.4340619000141,z,1,0.6004287999821827,None,686082,001,2024-10-17_09h18.40.773,motor_sequence_learning_exp,2024.1.5,None,2024-10-17 09h18.48.572051 +0530,
150,v,,,,,15,2,62,1,641.4588703999761,,641.4366599000059,641.4588703999761,642.4599121999927,642.4599121999927,642.4599121999927,642.4599121999927,642.4931762999622,643.4612813000567,643.4612813000567,644.1039894999703,v,1,0.6185042000142857,None,686082,001,2024-10-17_09h18.40.773,motor_sequence_learning_exp,2024.1.5,None,2024-10-17 09h18.48.572051 +0530,
50,c,,,,,15,3,63,2,644.1284760000417,,644.1065320000052,644.1284760000417,645.1294711000519,645.1294711000519,645.1294711000519,645.1294711000519,645.1628335000714,646.1307342000073,646.1307342000073,646.8402639999986,c,1,0.6916078999638557,None,686082,001,2024-10-17_09h18.40.773,motor_sequence_learning_exp,2024.1.5,None,2024-10-17 09h18.48.572051 +0530,
-150,z,,,,,16,0,64,3,646.8648343000095,,646.8428270999575,646.8648343000095,647.8659075000323,647.8659075000323,647.8659075000323,647.8659075000323,647.8992309999885,648.8670841000276,648.8670841000276,649.3909592999844,z,1,0.5017013000324368,None,686082,001,2024-10-17_09h18.40.773,motor_sequence_learning_exp,2024.1.5,None,2024-10-17 09h18.48.572051 +0530,
-150,z,,,,,16,1,65,3,649.4174438000191,,649.3939691999694,649.4174438000191,650.4186202000128,650.4186202000128,650.4186202000128,650.4186202000128,650.4519698000513,651.4197568000527,651.4197568000527,651.9288201000309,z,1,0.4989421999780461,None,686082,001,2024-10-17_09h18.40.773,motor_sequence_learning_exp,2024.1.5,None,2024-10-17 09h18.48.572051 +0530,
-50,x,,,,,16,2,66,0,651.9536373000592,,651.9313184999628,651.9536373000592,652.9546939999564,652.9546939999564,652.9546939999564,652.9546939999564,652.9879946999718,653.9559782999568,653.9559782999568,654.5652699000202,x,1,0.6054836999392137,None,686082,001,2024-10-17_09h18.40.773,motor_sequence_learning_exp,2024.1.5,None,2024-10-17 09h18.48.572051 +0530,
150,v,,,,,16,3,67,1,654.5899386999663,,654.5677883999888,654.5899386999663,655.5909776999615,655.5909776999615,655.5909776999615,655.5909776999615,655.6243780000368,656.5921385000693,656.5921385000693,657.2350116999587,v,1,0.6161989000393078,None,686082,001,2024-10-17_09h18.40.773,motor_sequence_learning_exp,2024.1.5,None,2024-10-17 09h18.48.572051 +0530,
50,c,,,,,17,0,68,2,657.2594452999765,,657.2375946000684,657.2594452999765,658.2604498000583,658.2604498000583,658.2604498000583,658.2604498000583,658.2937533999793,659.2619186000666,659.2619186000666,659.9376066999976,c,1,0.6680945000844076,None,686082,001,2024-10-17_09h18.40.773,motor_sequence_learning_exp,2024.1.5,None,2024-10-17 09h18.48.572051 +0530,
-50,x,,,,,17,1,69,0,659.9624270000495,,659.9401764000067,659.9624270000495,660.9637022999814,660.9637022999814,660.9637022999814,660.9637022999814,660.9968961999984,661.9646555000218,661.9646555000218,662.374252300011,x,1,0.3872396999504417,None,686082,001,2024-10-17_09h18.40.773,motor_sequence_learning_exp,2024.1.5,None,2024-10-17 09h18.48.572051 +0530,
150,v,,,,,17,2,70,1,662.3983815000392,,662.3768369000172,662.3983815000392,663.3995978999883,663.3995978999883,663.3995978999883,663.3995978999883,663.4331809000578,664.4007871999638,664.4007871999638,664.909934299998,v,1,0.5037917000008747,None,686082,001,2024-10-17_09h18.40.773,motor_sequence_learning_exp,2024.1.5,None,2024-10-17 09h18.48.572051 +0530,
-150,z,,,,,17,3,71,3,664.9346236999845,,664.9128319000592,664.9346236999845,665.9357416999992,665.9357416999992,665.9357416999992,665.9357416999992,665.9688580000075,666.9368285000091,666.9368285000091,667.4466380999656,z,1,0.5068728000624105,None,686082,001,2024-10-17_09h18.40.773,motor_sequence_learning_exp,2024.1.5,None,2024-10-17 09h18.48.572051 +0530,
50,c,,,,,18,0,72,2,667.470956300036,,667.4491604999639,667.470956300036,668.4717855000636,668.4717855000636,668.4717855000636,668.4717855000636,668.5049978999887,669.4727996999864,669.4727996999864,670.1153661999851,c,1,0.6147049000719562,None,686082,001,2024-10-17_09h18.40.773,motor_sequence_learning_exp,2024.1.5,None,2024-10-17 09h18.48.572051 +0530,
50,c,,,,,18,1,73,2,670.1404274000088,,670.1179832000053,670.1404274000088,671.1411815000465,671.1411815000465,671.1411815000465,671.1411815000465,671.1746146000223,672.1425253000343,672.1425253000343,672.8186459999997,c,1,0.6535068999510258,None,686082,001,2024-10-17_09h18.40.773,motor_sequence_learning_exp,2024.1.5,None,2024-10-17 09h18.48.572051 +0530,
150,v,,,,,18,2,74,1,672.8435117000481,,672.8212395999581,672.8435117000481,673.8442675999831,673.8442675999831,673.8442675999831,673.8442675999831,673.8776095999638,674.8453967999667,674.8453967999667,675.4546840999974,v,1,0.5924777999753132,None,686082,001,2024-10-17_09h18.40.773,motor_sequence_learning_exp,2024.1.5,None,2024-10-17 09h18.48.572051 +0530,
