stimulus,condition,corr_resp,trials.thisRepN,trials.thisTrialN,trials.thisN,trials.thisIndex,thisRow.t,notes,instructions.started,text_2.started,instructions.stopped,trial.started,fixation.started,text.started,key_resp.started,fixation.stopped,trial.stopped,key_resp.keys,key_resp.corr,key_resp.rt,key_resp.duration,thank_you.started,text_3.started,thank_you.stopped,participant,date,expName,psychopyVersion,frameRate,expStart,
,,,,,,,,,0.02306989999487996,0.036713199922814965,10.003335400018841,,,,,,,,,,,,,,samarth,2024-12-02_13h42.32.241,solo_project,2024.1.5,None,2024-12-02 13h43.23.836018 +0530,
logical  ,control,y,0,0,0,12,10.062264000065625,,,,,10.035356200067326,10.062264000065625,10.529344599926844,10.529344599926844,10.581378399860114,16.82575699989684,y,1,6.275101700099185,None,,,,samarth,2024-12-02_13h42.32.241,solo_project,2024.1.5,None,2024-12-02 13h43.23.836018 +0530,
clicinal,cctl,n,0,1,1,33,16.852943599922583,,,,,16.828763299854472,16.852943599922583,17.354236599989235,17.354236599989235,17.387022000038996,20.249439199920744,n,1,2.8794251000508666,None,,,,samarth,2024-12-02_13h42.32.241,solo_project,2024.1.5,None,2024-12-02 13h43.23.836018 +0530,
crinimal,cctl,n,0,2,2,39,20.273766099940985,,,,,20.250753399915993,20.273766099940985,20.77581509994343,20.77581509994343,20.77581509994343,23.687967899953946,n,1,2.8963862999808043,None,,,,samarth,2024-12-02_13h42.32.241,solo_project,2024.1.5,None,2024-12-02 13h43.23.836018 +0530,
original  ,control,y,0,3,3,28,23.710883100051433,,,,,23.689291399903595,23.710883100051433,24.210903099970892,24.210903099970892,24.24427690007724,26.756466299993917,y,1,2.521785599878058,None,,,,samarth,2024-12-02_13h42.32.241,solo_project,2024.1.5,None,2024-12-02 13h43.23.836018 +0530,
mobile  ,control,y,0,4,4,36,26.78030059998855,,,,,26.757935999892652,26.78030059998855,27.28181209997274,27.28181209997274,27.314332199981436,28.57734639989212,y,1,1.2830711000133306,None,,,,samarth,2024-12-02_13h42.32.241,solo_project,2024.1.5,None,2024-12-02 13h43.23.836018 +0530,
resufal,cctl,n,0,5,5,5,28.599354800069705,,,,,28.578629199881107,28.599354800069705,29.09959980007261,29.09959980007261,29.133033100049943,30.796254199929535,n,1,1.68296410003677,None,,,,samarth,2024-12-02_13h42.32.241,solo_project,2024.1.5,None,2024-12-02 13h43.23.836018 +0530,
velocity  ,control,y,0,6,6,24,30.817574799992144,,,,,30.797640200005844,30.817574799992144,31.31895049987361,31.31895049987361,31.3522030999884,33.045844400068745,y,1,1.6979012999217957,None,,,,samarth,2024-12-02_13h42.32.241,solo_project,2024.1.5,None,2024-12-02 13h43.23.836018 +0530,
remote  ,control,y,0,7,7,22,33.070875599980354,,,,,33.047036099946126,33.070875599980354,33.57098659989424,33.57098659989424,33.590242200065404,34.430450399871916,y,1,0.8309872001409531,None,,,,samarth,2024-12-02_13h42.32.241,solo_project,2024.1.5,None,2024-12-02 13h43.23.836018 +0530,
criminal  ,control,y,0,8,8,38,34.45557189988904,,,,,34.43163689994253,34.45557189988904,34.97292479989119,34.97292479989119,34.97292479989119,36.150054099969566,y,1,1.174131500069052,None,,,,samarth,2024-12-02_13h42.32.241,solo_project,2024.1.5,None,2024-12-02 13h43.23.836018 +0530,
donimant,cctl,n,0,9,9,31,36.174021600047126,,,,,36.151325799990445,36.174021600047126,36.67662149993703,36.67662149993703,36.67662149993703,38.00127790006809,n,1,1.2985649998299778,None,,,,samarth,2024-12-02_13h42.32.241,solo_project,2024.1.5,None,2024-12-02 13h43.23.836018 +0530,
liretal,cctl,n,0,10,10,17,38.026161700021476,,,,,38.00276579987258,38.026161700021476,38.52693559997715,38.52693559997715,38.56062770006247,41.58941200003028,n,1,3.0449289998505265,None,,,,samarth,2024-12-02_13h42.32.241,solo_project,2024.1.5,None,2024-12-02 13h43.23.836018 +0530,
opmital,cctl,n,0,11,11,3,41.613677399931476,,,,,41.59082529996522,41.613677399931476,42.11376279988326,42.11376279988326,42.13306699995883,43.86047940002754,n,1,1.7349713000003248,None,,,,samarth,2024-12-02_13h42.32.241,solo_project,2024.1.5,None,2024-12-02 13h43.23.836018 +0530,
orinigal,cctl,n,0,12,12,29,43.88253719988279,,,,,43.862095799995586,43.88253719988279,44.3827935999725,44.3827935999725,44.4164732999634,45.35943429986946,n,1,0.9697936000302434,None,,,,samarth,2024-12-02_13h42.32.241,solo_project,2024.1.5,None,2024-12-02 13h43.23.836018 +0530,
clinical  ,control,y,0,13,13,32,45.38427080004476,,,,,45.360653599957004,45.38427080004476,45.88694570004009,45.88694570004009,45.88694570004009,47.93211369984783,y,1,2.027977699879557,None,,,,samarth,2024-12-02_13h42.32.241,solo_project,2024.1.5,None,2024-12-02 13h43.23.836018 +0530,
locigal,cctl,n,0,14,14,13,47.95335349999368,,,,,47.93331620004028,47.95335349999368,48.45583390002139,48.45583390002139,48.45583390002139,50.28206519992091,n,1,1.8152828000020236,None,,,,samarth,2024-12-02_13h42.32.241,solo_project,2024.1.5,None,2024-12-02 13h43.23.836018 +0530,
retalive,cctl,n,0,15,15,35,50.30634870007634,,,,,50.283583000069484,50.30634870007634,50.80734289996326,50.80734289996326,50.84007210005075,51.81668960000388,n,1,0.9868666999973357,None,,,,samarth,2024-12-02_13h42.32.241,solo_project,2024.1.5,None,2024-12-02 13h43.23.836018 +0530,
setanor,cctl,n,0,16,16,9,51.84110859991051,,,,,51.81788039999083,51.84110859991051,52.34163110004738,52.34163110004738,52.360215599881485,53.869357799878344,n,1,1.4954975999426097,None,,,,samarth,2024-12-02_13h42.32.241,solo_project,2024.1.5,None,2024-12-02 13h43.23.836018 +0530,
romantic  ,control,y,0,17,17,26,53.89333110000007,,,,,53.870545299956575,53.89333110000007,54.394087800057605,54.394087800057605,54.427393399877474,58.15900580002926,y,1,3.7610300998203456,None,,,,samarth,2024-12-02_13h42.32.241,solo_project,2024.1.5,None,2024-12-02 13h43.23.836018 +0530,
refusal  ,control,y,0,18,18,4,58.18129900004715,,,,,58.1603516000323,58.18129900004715,58.682249299949035,58.682249299949035,58.715346900047734,60.894973299931735,y,1,2.202227200148627,None,,,,samarth,2024-12-02_13h42.32.241,solo_project,2024.1.5,None,2024-12-02 13h43.23.836018 +0530,
senator  ,control,y,0,19,19,8,60.918068799888715,,,,,60.896256800042465,60.918068799888715,61.42016500001773,61.42016500001773,61.42016500001773,63.53190469997935,n,0,2.0992684999946505,None,,,,samarth,2024-12-02_13h42.32.241,solo_project,2024.1.5,None,2024-12-02 13h43.23.836018 +0530,
edivent,cctl,n,0,20,20,19,63.55446369992569,,,,,63.53327500005253,63.55446369992569,64.05458569992334,64.05458569992334,64.07329219998792,65.35012219985947,n,1,1.287092600017786,None,,,,samarth,2024-12-02_13h42.32.241,solo_project,2024.1.5,None,2024-12-02 13h43.23.836018 +0530,
stragety,cctl,n,0,21,21,1,65.37257910007611,,,,,65.35138779995032,65.37257910007611,65.8730985999573,65.8730985999573,65.89184739999473,70.50387310003862,n,1,4.6256796000525355,None,,,,samarth,2024-12-02_13h42.32.241,solo_project,2024.1.5,None,2024-12-02 13h43.23.836018 +0530,
manire,cctl,n,0,22,22,21,70.5283410998527,,,,,70.50545579986647,70.5283410998527,71.04559740005061,71.04559740005061,71.04559740005061,71.98936800006777,n,1,0.9330822001211345,None,,,,samarth,2024-12-02_13h42.32.241,solo_project,2024.1.5,None,2024-12-02 13h43.23.836018 +0530,
vecolity,cctl,n,0,23,23,25,72.01310950005427,,,,,71.99057929986157,72.01310950005427,72.51337140006945,72.51337140006945,72.54706740006804,73.27392930001952,n,1,0.7367724999785423,None,,,,samarth,2024-12-02_13h42.32.241,solo_project,2024.1.5,None,2024-12-02 13h43.23.836018 +0530,
relative  ,control,y,0,24,24,34,73.29787230002694,,,,,73.27512139989994,73.29787230002694,73.79870669986121,73.79870669986121,73.83180060004815,75.69322060002014,y,1,1.8783301999792457,None,,,,samarth,2024-12-02_13h42.32.241,solo_project,2024.1.5,None,2024-12-02 13h43.23.836018 +0530,
storage  ,control,y,0,25,25,14,75.7171533999499,,,,,75.69469819986261,75.7171533999499,76.21798459999263,76.21798459999263,76.25145259988494,78.56517939991318,y,1,2.338308399775997,None,,,,samarth,2024-12-02_13h42.32.241,solo_project,2024.1.5,None,2024-12-02 13h43.23.836018 +0530,
ronamtic,cctl,n,0,26,26,27,78.58708229986951,,,,,78.5666946999263,78.58708229986951,79.10424509993754,79.10424509993754,79.10424509993754,80.26454210001975,n,1,1.1402633998077363,None,,,,samarth,2024-12-02_13h42.32.241,solo_project,2024.1.5,None,2024-12-02 13h43.23.836018 +0530,
marine  ,control,y,0,27,27,20,80.28887369995937,,,,,80.26573799992912,80.28887369995937,80.79018669994548,80.79018669994548,80.8227017999161,82.86792370001785,y,1,2.07589039998129,None,,,,samarth,2024-12-02_13h42.32.241,solo_project,2024.1.5,None,2024-12-02 13h43.23.836018 +0530,
paficic,cctl,n,0,28,28,11,82.89152149995789,,,,,82.86912669986486,82.89152149995789,83.39227840001695,83.39227840001695,83.41123029985465,85.088654599851,n,1,1.6923761998768896,None,,,,samarth,2024-12-02_13h42.32.241,solo_project,2024.1.5,None,2024-12-02 13h43.23.836018 +0530,
evident  ,control,y,0,29,29,18,85.11076269997284,,,,,85.08995749987662,85.11076269997284,85.61171199986711,85.61171199986711,85.6449011999648,87.17445739987306,y,1,1.549356099916622,None,,,,samarth,2024-12-02_13h42.32.241,solo_project,2024.1.5,None,2024-12-02 13h43.23.836018 +0530,
stogare,cctl,n,0,30,30,15,87.19654050003737,,,,,87.17608459992334,87.19654050003737,87.68334229988977,87.68334229988977,87.71428740001284,88.77998199989088,n,1,1.0923866000957787,None,,,,samarth,2024-12-02_13h42.32.241,solo_project,2024.1.5,None,2024-12-02 13h43.23.836018 +0530,
pacific  ,control,y,0,31,31,10,88.81592279998586,,,,,88.78203430003487,88.81592279998586,89.298745600041,89.298745600041,89.31784629984759,94.96467650006525,y,1,5.63874620012939,None,,,,samarth,2024-12-02_13h42.32.241,solo_project,2024.1.5,None,2024-12-02 13h43.23.836018 +0530,
retome,cctl,n,0,32,32,23,94.98826709995046,,,,,94.96599130006507,94.98826709995046,95.4909993999172,95.4909993999172,95.4909993999172,96.51246090000495,n,1,1.0071872000116855,None,,,,samarth,2024-12-02_13h42.32.241,solo_project,2024.1.5,None,2024-12-02 13h43.23.836018 +0530,
fortune  ,control,y,0,33,33,6,96.52391440002248,,,,,96.51316349999979,96.52391440002248,97.04043240007013,97.04043240007013,97.04043240007013,98.2871878000442,y,1,1.2293138999957591,None,,,,samarth,2024-12-02_13h42.32.241,solo_project,2024.1.5,None,2024-12-02 13h43.23.836018 +0530,
optimal  ,control,y,0,34,34,2,98.30860089999624,,,,,98.28839999996126,98.30860089999624,98.80908060004003,98.80908060004003,98.84264250006527,102.65992800006643,y,1,3.837442999938503,None,,,,samarth,2024-12-02_13h42.32.241,solo_project,2024.1.5,None,2024-12-02 13h43.23.836018 +0530,
dominant  ,control,y,0,35,35,30,102.67981159989722,,,,,102.66219439986162,102.67981159989722,103.18350939988159,103.18350939988159,103.18350939988159,104.77257529995404,y,1,1.576803700067103,None,,,,samarth,2024-12-02_13h42.32.241,solo_project,2024.1.5,None,2024-12-02 13h43.23.836018 +0530,
strategy  ,control,y,0,36,36,0,104.79891879996285,,,,,104.77317429985851,104.79891879996285,105.29939229995944,105.29939229995944,105.31786990002729,108.56121789989993,y,1,3.2312769999261945,None,,,,samarth,2024-12-02_13h42.32.241,solo_project,2024.1.5,None,2024-12-02 13h43.23.836018 +0530,
fornute,cctl,n,0,37,37,7,108.58644560002722,,,,,108.56235740007833,108.58644560002722,109.07122729998082,109.07122729998082,109.10408169985749,111.18058179994114,n,1,2.1026443000882864,None,,,,samarth,2024-12-02_13h42.32.241,solo_project,2024.1.5,None,2024-12-02 13h43.23.836018 +0530,
molibe,cctl,n,0,38,38,37,111.20606469991617,,,,,111.18138169986196,111.20606469991617,111.69136679987423,111.69136679987423,111.70807469985448,112.34761029994115,n,1,0.647063999902457,None,,,,samarth,2024-12-02_13h42.32.241,solo_project,2024.1.5,None,2024-12-02 13h43.23.836018 +0530,
literal  ,control,y,0,39,39,16,112.37409679987468,,,,,112.34851490007713,112.37409679987468,112.87422459991649,112.87422459991649,112.89165650005452,117.40522790001705,y,1,4.526307399850339,None,,,,samarth,2024-12-02_13h42.32.241,solo_project,2024.1.5,None,2024-12-02 13h43.23.836018 +0530,
,,,,,,,,,,,,,,,,,,,,,,117.40610440005548,117.4295514000114,122.4088780998718,samarth,2024-12-02_13h42.32.241,solo_project,2024.1.5,None,2024-12-02 13h43.23.836018 +0530,
