study_word,test_word,reference,old_new,trials.thisRepN,trials.thisTrialN,trials.thisN,trials.thisIndex,trials_2.thisRepN,trials_2.thisTrialN,trials_2.thisN,trials_2.thisIndex,thisRow.t,notes,trial.started,text.started,slider.started,trial.stopped,slider.response,slider.rt,test_phase.started,text_2.started,textbox.started,text_3.started,mouse.started,test_phase.stopped,textbox.text,mouse.x,mouse.y,mouse.leftButton,mouse.midButton,mouse.rightButton,mouse.time,mouse.clicked_name,participant,session,date,expName,psychopyVersion,frameRate,expStart,
cushion,,,,0,0,0,1,,,,,0.10792690003290772,,0.03013430000282824,0.10792690003290772,0.10792690003290772,6.149940200033598,1.0133333333333334,6.046351900091395,,,,,,,,,,,,,,,066653,001,2024-11-06_09h44.22.137,word_priming_task,2024.1.5,None,2024-11-06 09h44.38.541822 +0530,
tshirt,,,,0,1,1,7,,,,,6.214513300103135,,6.157660400029272,6.214513300103135,6.214513300103135,7.631905600079335,1.0133333333333334,1.420918400050141,,,,,,,,,,,,,,,066653,001,2024-11-06_09h44.22.137,word_priming_task,2024.1.5,None,2024-11-06 09h44.38.541822 +0530,
chart,,,,0,2,2,6,,,,,7.665943100000732,,7.632545700063929,7.665943100000732,7.665943100000732,8.818725500022992,1.0133333333333334,1.1237692000577226,,,,,,,,,,,,,,,066653,001,2024-11-06_09h44.22.137,word_priming_task,2024.1.5,None,2024-11-06 09h44.38.541822 +0530,
book,,,,0,3,3,0,,,,,8.867489000083879,,8.819581600022502,8.867489000083879,8.867489000083879,9.85209900001064,1.0133333333333334,0.9681342999683693,,,,,,,,,,,,,,,066653,001,2024-11-06_09h44.22.137,word_priming_task,2024.1.5,None,2024-11-06 09h44.38.541822 +0530,
mouse,,,,0,4,4,8,,,,,9.918879800010473,,9.852963300072588,9.918879800010473,9.918879800010473,10.937921500066295,1.0133333333333334,1.0103320999769494,,,,,,,,,,,,,,,066653,001,2024-11-06_09h44.22.137,word_priming_task,2024.1.5,None,2024-11-06 09h44.38.541822 +0530,
laptop,,,,0,5,5,5,,,,,10.987045800080523,,10.938778400071897,10.987045800080523,10.987045800080523,11.872409000061452,1.0133333333333334,0.8592590999323875,,,,,,,,,,,,,,,066653,001,2024-11-06_09h44.22.137,word_priming_task,2024.1.5,None,2024-11-06 09h44.38.541822 +0530,
cruise,,,,0,6,6,11,,,,,11.904334800085053,,11.87317170004826,11.904334800085053,11.904334800085053,13.062198800034821,1.0133333333333334,1.1533617000095546,,,,,,,,,,,,,,,066653,001,2024-11-06_09h44.22.137,word_priming_task,2024.1.5,None,2024-11-06 09h44.38.541822 +0530,
marble,,,,0,7,7,3,,,,,13.10522500006482,,13.062549600028433,13.10522500006482,13.10522500006482,14.040124100050889,1.0133333333333334,0.9282763000810519,,,,,,,,,,,,,,,066653,001,2024-11-06_09h44.22.137,word_priming_task,2024.1.5,None,2024-11-06 09h44.38.541822 +0530,
board,,,,0,8,8,4,,,,,14.1068682000041,,14.040852800011635,14.1068682000041,14.1068682000041,15.032187400036491,1.0133333333333334,0.9405886000022292,,,,,,,,,,,,,,,066653,001,2024-11-06_09h44.22.137,word_priming_task,2024.1.5,None,2024-11-06 09h44.38.541822 +0530,
police,,,,0,9,9,12,,,,,15.057531099999323,,15.032564200111665,15.057531099999323,15.057531099999323,15.973598500015214,1.0133333333333334,0.9025814000051469,,,,,,,,,,,,,,,066653,001,2024-11-06_09h44.22.137,word_priming_task,2024.1.5,None,2024-11-06 09h44.38.541822 +0530,
pastry,,,,0,10,10,9,,,,,16.008602400077507,,15.974270200007595,16.008602400077507,16.008602400077507,17.10043900005985,1.0133333333333334,1.0928082999307662,,,,,,,,,,,,,,,066653,001,2024-11-06_09h44.22.137,word_priming_task,2024.1.5,None,2024-11-06 09h44.38.541822 +0530,
phone,,,,0,11,11,2,,,,,17.126655900035985,,17.100797999999486,17.126655900035985,17.126655900035985,18.028462100075558,1.0133333333333334,0.8728849999606609,,,,,,,,,,,,,,,066653,001,2024-11-06_09h44.22.137,word_priming_task,2024.1.5,None,2024-11-06 09h44.38.541822 +0530,
poster,,,,0,12,12,14,,,,,18.07752390007954,,18.029318100074306,18.07752390007954,18.07752390007954,19.112931200070307,1.0133333333333334,1.0222731999820098,,,,,,,,,,,,,,,066653,001,2024-11-06_09h44.22.137,word_priming_task,2024.1.5,None,2024-11-06 09h44.38.541822 +0530,
case,,,,0,13,13,10,,,,,19.161647800006904,,19.11377210007049,19.161647800006904,19.161647800006904,19.996134800021537,1.0133333333333334,0.8143289999570698,,,,,,,,,,,,,,,066653,001,2024-11-06_09h44.22.137,word_priming_task,2024.1.5,None,2024-11-06 09h44.38.541822 +0530,
keys,,,,0,14,14,13,,,,,20.02923580002971,,19.99678580008913,20.02923580002971,20.02923580002971,20.848078300012276,1.0133333333333334,0.7960311999777332,,,,,,,,,,,,,,,066653,001,2024-11-06_09h44.22.137,word_priming_task,2024.1.5,None,2024-11-06 09h44.38.541822 +0530,
,_o_rd,board,old,,,,,0,0,0,10,20.89728970010765,,,,,,,,20.862532600061968,20.89728970010765,20.89728970010765,20.89728970010765,0.021460199961438775,30.88680000009481,b,[],[],[],[],[],[],[],066653,001,2024-11-06_09h44.22.137,word_priming_task,2024.1.5,None,2024-11-06 09h44.38.541822 +0530,
,p_s_tr_,pastry,old,,,,,0,1,1,4,30.92573610006366,,,,,,,,30.890090200002305,30.92573610006366,30.92573610006366,30.92573610006366,0.04691149992868304,40.86079490010161,ary--=,[],[],[],[],[],[],[],066653,001,2024-11-06_09h44.22.137,word_priming_task,2024.1.5,None,2024-11-06 09h44.38.541822 +0530,
,p_li_e,police,old,,,,,0,2,2,7,40.90327220002655,,,,,,,,40.86237670003902,40.90327220002655,40.90327220002655,40.90327220002655,0.018479399965144694,47.67041690007318,police,[-0.011666666666666667],[-0.30833333333333335],[1],[0],[0],[6.802339699934237],['text_3'],066653,001,2024-11-06_09h44.22.137,word_priming_task,2024.1.5,None,2024-11-06 09h44.38.541822 +0530,
,_ho_e,phone,old,,,,,0,3,3,12,47.710845900001004,,,,,,,,47.672253300086595,47.710845900001004,47.710845900001004,47.710845900001004,0.006820200011134148,57.69607070006896,,[],[],[],[],[],[],[],066653,001,2024-11-06_09h44.22.137,word_priming_task,2024.1.5,None,2024-11-06 09h44.38.541822 +0530,
,c_s_,case,old,,,,,0,4,4,5,57.72152120003011,,,,,,,,57.69763960002456,57.72152120003011,57.72152120003011,57.72152120003011,0.030151800019666553,65.92397440003697,cusp,[-0.035],[-0.31],[1],[0],[0],[8.220826699980535],['text_3'],066653,001,2024-11-06_09h44.22.137,word_priming_task,2024.1.5,None,2024-11-06 09h44.38.541822 +0530,
,_r_is_,cruise,old,,,,,0,5,5,6,65.9639866000507,,,,,,,,65.92591790005099,65.9639866000507,65.9639866000507,65.9639866000507,0.007057499955408275,75.93124460009858,,[],[],[],[],[],[],[],066653,001,2024-11-06_09h44.22.137,word_priming_task,2024.1.5,None,2024-11-06 09h44.38.541822 +0530,
,ta_l_,table,old,,,,,0,6,6,15,75.95836650009733,,,,,,,,75.93278360005934,75.95836650009733,75.95836650009733,75.95836650009733,0.011887399945408106,85.92681690002792,ta,[],[],[],[],[],[],[],066653,001,2024-11-06_09h44.22.137,word_priming_task,2024.1.5,None,2024-11-06 09h44.38.541822 +0530,
,l_pt_p,laptop,old,,,,,0,7,7,0,85.96932680008467,,,,,,,,85.92857090011239,85.96932680008467,85.96932680008467,85.96932680008467,0.0094006999861449,91.21920190006495,laptop,"[0.006666666666666667, 0.006666666666666667]","[-0.355, -0.2966666666666667]","[1, 1]","[0, 0]","[0, 0]","[4.112969200010411, 5.2833964000456035]",['text_3'],066653,001,2024-11-06_09h44.22.137,word_priming_task,2024.1.5,None,2024-11-06 09h44.38.541822 +0530,
,_ha_t,chart,old,,,,,0,8,8,1,91.25836030009668,,,,,,,,91.2211329001002,91.25836030009668,91.25836030009668,91.25836030009668,0.006846900098025799,101.2432765000267,shaft,[-0.013333333333333334],[-0.02666666666666667],[1],[0],[0],[1.6238944999640808],[],066653,001,2024-11-06_09h44.22.137,word_priming_task,2024.1.5,None,2024-11-06 09h44.38.541822 +0530,
,bo_t_e,bottle,new,,,,,0,9,9,18,101.28608940006234,,,,,,,,101.24509980005678,101.28608940006234,101.28608940006234,101.28608940006234,0.030017900047823787,108.90477330004796,bottle,"[-0.03833333333333333, 0.028333333333333332]","[-0.25666666666666665, -0.305]","[1, 1]","[0, 0]","[0, 0]","[0.3436983999563381, 7.652922299923375]",['text_3'],066653,001,2024-11-06_09h44.22.137,word_priming_task,2024.1.5,None,2024-11-06 09h44.38.541822 +0530,
,p_nc_l,pencil,new,,,,,0,10,10,16,108.94452480005566,,,,,,,,108.90657520003151,108.94452480005566,108.94452480005566,108.94452480005566,0.006774200010113418,115.52749100001529,pencil,[-0.04666666666666667],[-0.2733333333333333],[1],[0],[0],[6.613373799948022],['text_3'],066653,001,2024-11-06_09h44.22.137,word_priming_task,2024.1.5,None,2024-11-06 09h44.38.541822 +0530,
,c_m_ra,camera,new,,,,,0,11,11,19,115.56854000000749,,,,,,,,115.52927540009841,115.56854000000749,115.56854000000749,115.56854000000749,0.006410300033167005,121.45033040002454,camera,"[-0.028333333333333332, -0.023333333333333334, -0.028333333333333332]","[-0.0033333333333333335, -0.20666666666666667, -0.3]","[1, 1, 1]","[0, 0, 0]","[0, 0, 0]","[1.258276000036858, 4.779444199986756, 5.913899200037122]",['text_3'],066653,001,2024-11-06_09h44.22.137,word_priming_task,2024.1.5,None,2024-11-06 09h44.38.541822 +0530,
,_a_bl_,marble,old,,,,,0,12,12,11,121.49152550008148,,,,,,,,121.45233030000236,121.49152550008148,121.49152550008148,121.49152550008148,0.005584799917414784,131.47790240007453,,[-0.005],[-0.018333333333333333],[1],[0],[0],[1.2440413000294939],[],066653,001,2024-11-06_09h44.22.137,word_priming_task,2024.1.5,None,2024-11-06 09h44.38.541822 +0530,
,_oo_,book,old,,,,,0,13,13,13,131.5021242001094,,,,,,,,131.4796424000524,131.5021242001094,131.5021242001094,131.5021242001094,0.032825800008140504,134.46515720000025,book,[-0.011666666666666667],[-0.31166666666666665],[1],[0],[0],[2.979397700051777],['text_3'],066653,001,2024-11-06_09h44.22.137,word_priming_task,2024.1.5,None,2024-11-06 09h44.38.541822 +0530,
,_ou_e,mouse,old,,,,,0,14,14,3,134.50571510009468,,,,,,,,134.46692950010765,134.50571510009468,134.50571510009468,134.50571510009468,0.006405199994333088,139.5705089000985,mouse,"[0.006666666666666667, 0.006666666666666667]","[-0.21, -0.305]","[1, 1]","[0, 0]","[0, 0]","[3.696365699986927, 5.096417299937457]",['text_3'],066653,001,2024-11-06_09h44.22.137,word_priming_task,2024.1.5,None,2024-11-06 09h44.38.541822 +0530,
,c_s_io_,cushion,old,,,,,0,15,15,14,139.59427830006462,,,,,,,,139.57222770003136,139.59427830006462,139.59427830006462,139.59427830006462,0.005076300003565848,149.59261670010164,cush,[],[],[],[],[],[],[],066653,001,2024-11-06_09h44.22.137,word_priming_task,2024.1.5,None,2024-11-06 09h44.38.541822 +0530,
,k_y_,keys,old,,,,,0,16,16,8,149.6221644000616,,,,,,,,149.59352610004134,149.6221644000616,149.6221644000616,149.6221644000616,0.024201399995945394,155.43789180007298,keys,"[-0.011666666666666667, 0.0016666666666666668]","[-0.25666666666666665, -0.31]","[1, 1]","[0, 0]","[0, 0]","[4.572034599957988, 5.8407242000103]",['text_3'],066653,001,2024-11-06_09h44.22.137,word_priming_task,2024.1.5,None,2024-11-06 09h44.38.541822 +0530,
,t_hi_t,tshirt,old,,,,,0,17,17,2,155.47859240008984,,,,,,,,155.43972810008563,155.47859240008984,155.47859240008984,155.47859240008984,0.006388399982824922,160.12687040003948,tshirt,[-0.055],[-0.28833333333333333],[1],[0],[0],[4.679942999966443],['text_3'],066653,001,2024-11-06_09h44.22.137,word_priming_task,2024.1.5,None,2024-11-06 09h44.38.541822 +0530,
,v_s_,vase,new,,,,,0,18,18,17,160.16657300002407,,,,,,,,160.12868820002768,160.16657300002407,160.16657300002407,160.16657300002407,0.009432299993932247,170.1540516000241,,[],[],[],[],[],[],[],066653,001,2024-11-06_09h44.22.137,word_priming_task,2024.1.5,None,2024-11-06 09h44.38.541822 +0530,
,p_st_r,poster,old,,,,,0,19,19,9,170.19493330002297,,,,,,,,170.15546490007546,170.19493330002297,170.19493330002297,170.19493330002297,0.033036999986507,177.74179960007314,pastor,[-0.035],[-0.29833333333333334],[1],[0],[0],[7.579157899948768],['text_3'],066653,001,2024-11-06_09h44.22.137,word_priming_task,2024.1.5,None,2024-11-06 09h44.38.541822 +0530,
