stimulus,condition,corr_resp,trials.thisRepN,trials.thisTrialN,trials.thisN,trials.thisIndex,thisRow.t,notes,instructions.started,text_2.started,instructions.stopped,trial.started,fixation.started,text.started,key_resp.started,fixation.stopped,trial.stopped,key_resp.keys,key_resp.corr,key_resp.rt,key_resp.duration,thank_you.started,text_3.started,thank_you.stopped,participant,date,expName,psychopyVersion,frameRate,expStart,
,,,,,,,,,0.028176600113511086,0.040247000055387616,10.006545200012624,,,,,,,,,,,,,,aakash,2024-12-02_19h38.37.101,solo_project,2024.1.5,None,2024-12-02 19h38.52.026275 +0530,
religion  ,control,y,0,0,0,16,10.049090000102296,,,,,10.03152950014919,10.049090000102296,10.516817399999127,10.516817399999127,10.568662000121549,11.416549700079486,y,1,0.8692078001331538,None,,,,aakash,2024-12-02_19h38.37.101,solo_project,2024.1.5,None,2024-12-02 19h38.52.026275 +0530,
recile,ccrl,n,0,1,1,9,11.43397770007141,,,,,11.418377900030464,11.43397770007141,11.934813300147653,11.934813300147653,11.953399399993941,13.010679700179026,n,1,1.0553941999096423,None,,,,aakash,2024-12-02_19h38.37.101,solo_project,2024.1.5,None,2024-12-02 19h38.52.026275 +0530,
density  ,control,y,0,2,2,10,13.035921900067478,,,,,13.011902200058103,13.035921900067478,13.536714600166306,13.536714600166306,13.554656699998304,14.061688200104982,y,1,0.5184813002124429,None,,,,aakash,2024-12-02_19h38.37.101,solo_project,2024.1.5,None,2024-12-02 19h38.52.026275 +0530,
quakity,ccrl,n,0,3,3,33,14.087123300181702,,,,,14.062914700014517,14.087123300181702,14.589754400076345,14.589754400076345,14.620604100171477,15.16616820008494,n,1,0.5668766000308096,None,,,,aakash,2024-12-02_19h38.37.101,solo_project,2024.1.5,None,2024-12-02 19h38.52.026275 +0530,
dispute  ,control,y,0,4,4,26,15.188119400059804,,,,,15.167416200041771,15.188119400059804,15.68875760002993,15.68875760002993,15.706948700128123,16.280904700048268,y,1,0.5775911000091583,None,,,,aakash,2024-12-02_19h38.37.101,solo_project,2024.1.5,None,2024-12-02 19h38.52.026275 +0530,
conbicer,ccrl,n,0,5,5,5,16.306254300056025,,,,,16.282116000074893,16.306254300056025,16.806621700059623,16.806621700059623,16.82629520003684,17.35140290018171,n,1,0.5302120000123978,None,,,,aakash,2024-12-02_19h38.37.101,solo_project,2024.1.5,None,2024-12-02 19h38.52.026275 +0530,
numerical  ,control,y,0,6,6,36,17.373886000132188,,,,,17.352564900182188,17.373886000132188,17.87462030001916,17.87462030001916,17.893300800118595,18.38495870004408,y,1,0.49553900002501905,None,,,,aakash,2024-12-02_19h38.37.101,solo_project,2024.1.5,None,2024-12-02 19h38.52.026275 +0530,
mifikary,ccrl,n,0,7,7,29,18.408280899981037,,,,,18.38618370005861,18.408280899981037,18.910648900084198,18.910648900084198,18.910648900084198,19.369896000018343,n,1,0.45765710016712546,None,,,,aakash,2024-12-02_19h38.37.101,solo_project,2024.1.5,None,2024-12-02 19h38.52.026275 +0530,
coverage  ,control,y,0,8,8,30,19.391943600028753,,,,,19.371125100180507,19.391943600028753,19.89532080013305,19.89532080013305,19.89532080013305,20.352852100040764,y,1,0.44412380014546216,None,,,,aakash,2024-12-02_19h38.37.101,solo_project,2024.1.5,None,2024-12-02 19h38.52.026275 +0530,
potugar,ccrl,n,0,9,9,35,20.37717010010965,,,,,20.3538683000952,20.37717010010965,20.877851700177416,20.877851700177416,20.896187199978158,21.47015200019814,n,1,0.585788199910894,None,,,,aakash,2024-12-02_19h38.37.101,solo_project,2024.1.5,None,2024-12-02 19h38.52.026275 +0530,
posity,ccrl,n,0,10,10,7,21.495029400102794,,,,,21.47137890011072,21.495029400102794,21.995965000009164,21.995965000009164,22.013912900118157,22.82134240004234,n,1,0.7952891001477838,None,,,,aakash,2024-12-02_19h38.37.101,solo_project,2024.1.5,None,2024-12-02 19h38.52.026275 +0530,
memory  ,control,y,0,11,11,14,22.846566200023517,,,,,22.822563600027934,22.846566200023517,23.347151200054213,23.347151200054213,23.365629500010982,23.872364400187507,y,1,0.5072925998829305,None,,,,aakash,2024-12-02_19h38.37.101,solo_project,2024.1.5,None,2024-12-02 19h38.52.026275 +0530,
debate  ,control,y,0,12,12,12,23.897713400190696,,,,,23.873707100050524,23.897713400190696,24.398319200146943,24.398319200146943,24.416970600141212,25.275647000176832,y,1,0.8592757999431342,None,,,,aakash,2024-12-02_19h38.37.101,solo_project,2024.1.5,None,2024-12-02 19h38.52.026275 +0530,
popular  ,control,y,0,13,13,34,25.2991037000902,,,,,25.276866200147197,25.2991037000902,25.80004550004378,25.80004550004378,25.81810270017013,26.34188580000773,y,1,0.5096330000087619,None,,,,aakash,2024-12-02_19h38.37.101,solo_project,2024.1.5,None,2024-12-02 19h38.52.026275 +0530,
consider  ,control,y,0,14,14,4,26.367086900165305,,,,,26.3431067999918,26.367086900165305,26.868016100022942,26.868016100022942,26.886242300039157,27.378423399990425,y,1,0.493753100046888,None,,,,aakash,2024-12-02_19h38.37.101,solo_project,2024.1.5,None,2024-12-02 19h38.52.026275 +0530,
repifion,ccrl,n,0,15,15,17,27.401520900195464,,,,,27.37966620014049,27.401520900195464,27.902530600083992,27.902530600083992,27.920793800149113,28.494461900088936,n,1,0.5744641998317093,None,,,,aakash,2024-12-02_19h38.37.101,solo_project,2024.1.5,None,2024-12-02 19h38.52.026275 +0530,
qualify  ,control,y,0,16,16,32,28.519475700100884,,,,,28.495702099986374,28.519475700100884,29.02018400002271,29.02018400002271,29.03826850000769,29.582541899988428,y,1,0.5598901000339538,None,,,,aakash,2024-12-02_19h38.37.101,solo_project,2024.1.5,None,2024-12-02 19h38.52.026275 +0530,
retire  ,control,y,0,17,17,8,29.6036955001764,,,,,29.58378850016743,29.6036955001764,30.104702800046653,30.104702800046653,30.122871600091457,30.71336799999699,y,1,0.597463000100106,None,,,,aakash,2024-12-02_19h38.37.101,solo_project,2024.1.5,None,2024-12-02 19h38.52.026275 +0530,
military  ,control,y,0,18,18,28,30.738514400087297,,,,,30.714716900140047,30.738514400087297,31.239438300020993,31.239438300020993,31.25772470002994,31.864996100077406,y,1,0.6188079998828471,None,,,,aakash,2024-12-02_19h38.37.101,solo_project,2024.1.5,None,2024-12-02 19h38.52.026275 +0530,
menowy,ccrl,n,0,19,19,15,31.889765900094062,,,,,31.86623949999921,31.889765900094062,32.3906646000687,32.3906646000687,32.40871310001239,32.93284810008481,n,1,0.5400432001333684,None,,,,aakash,2024-12-02_19h38.37.101,solo_project,2024.1.5,None,2024-12-02 19h38.52.026275 +0530,
denficy,ccrl,n,0,20,20,11,32.95765870017931,,,,,32.93409740016796,32.95765870017931,33.45826380001381,33.45826380001381,33.47636460000649,34.102073200047016,n,1,0.6326138000003994,None,,,,aakash,2024-12-02_19h38.37.101,solo_project,2024.1.5,None,2024-12-02 19h38.52.026275 +0530,
policy  ,control,y,0,21,21,6,34.12549030012451,,,,,34.10330700012855,34.12549030012451,34.626126900082454,34.626126900082454,34.644936700118706,35.201937900157645,y,1,0.5495869999285787,None,,,,aakash,2024-12-02_19h38.37.101,solo_project,2024.1.5,None,2024-12-02 19h38.52.026275 +0530,
saline  ,control,y,0,22,22,38,35.22679970017634,,,,,35.203212700085714,35.22679970017634,35.727316400036216,35.727316400036216,35.74570590001531,36.319736200151965,y,1,0.576476100133732,None,,,,aakash,2024-12-02_19h38.37.101,solo_project,2024.1.5,None,2024-12-02 19h38.52.026275 +0530,
nunewical,ccrl,n,0,23,23,37,36.34462120011449,,,,,36.32098890002817,36.34462120011449,36.84540930017829,36.84540930017829,36.8641053000465,37.389214400202036,n,1,0.5275150998495519,None,,,,aakash,2024-12-02_19h38.37.101,solo_project,2024.1.5,None,2024-12-02 19h38.52.026275 +0530,
cocewage,ccrl,n,0,24,24,31,37.41248710011132,,,,,37.39049780019559,37.41248710011132,37.913076400058344,37.913076400058344,37.93164900015108,38.67222620011307,n,1,0.752282900037244,None,,,,aakash,2024-12-02_19h38.37.101,solo_project,2024.1.5,None,2024-12-02 19h38.52.026275 +0530,
provide  ,control,y,0,25,25,24,38.697315900120884,,,,,38.67346710013226,38.697315900120884,39.18282360001467,39.18282360001467,39.21448300010525,39.64021060010418,y,1,0.44775699987076223,None,,,,aakash,2024-12-02_19h38.37.101,solo_project,2024.1.5,None,2024-12-02 19h38.52.026275 +0530,
delahe,ccrl,n,0,26,26,13,39.66489290003665,,,,,39.64146240008995,39.66489290003665,40.16765690012835,40.16765690012835,40.16765690012835,40.69315559999086,n,1,0.5160887998063117,None,,,,aakash,2024-12-02_19h38.37.101,solo_project,2024.1.5,None,2024-12-02 19h38.52.026275 +0530,
indicate  ,control,y,0,27,27,0,40.71607920015231,,,,,40.69439570000395,40.71607920015231,41.216695700073615,41.216695700073615,41.2352335001342,41.70918030012399,y,1,0.4841770001221448,None,,,,aakash,2024-12-02_19h38.37.101,solo_project,2024.1.5,None,2024-12-02 19h38.52.026275 +0530,
disluge,ccrl,n,0,28,28,27,41.73365930002183,,,,,41.71013310016133,41.73365930002183,42.23442850005813,42.23442850005813,42.25268810009584,43.11038210010156,n,1,0.8714360001031309,None,,,,aakash,2024-12-02_19h38.37.101,solo_project,2024.1.5,None,2024-12-02 19h38.52.026275 +0530,
samite,ccrl,n,0,29,29,39,43.13535130000673,,,,,43.11161920009181,43.13535130000673,43.63642690004781,43.63642690004781,43.65438620001078,44.311636900063604,n,1,0.6535496001597494,None,,,,aakash,2024-12-02_19h38.37.101,solo_project,2024.1.5,None,2024-12-02 19h38.52.026275 +0530,
helicage,ccrl,n,0,30,30,3,44.336713100085035,,,,,44.312875900184736,44.336713100085035,44.83725790004246,44.83725790004246,44.85549520002678,45.430550900055096,n,1,0.5588090000674129,None,,,,aakash,2024-12-02_19h38.37.101,solo_project,2024.1.5,None,2024-12-02 19h38.52.026275 +0530,
heritage  ,control,y,0,31,31,2,45.45475749997422,,,,,45.431791600072756,45.45475749997422,45.95659940014593,45.95659940014593,45.95659940014593,46.64782130019739,y,1,0.6745594998355955,None,,,,aakash,2024-12-02_19h38.37.101,solo_project,2024.1.5,None,2024-12-02 19h38.52.026275 +0530,
bewoted,ccrl,n,0,32,32,21,46.67298760008998,,,,,46.64908600016497,46.67298760008998,47.17318919999525,47.17318919999525,47.19178820005618,47.66514160018414,n,1,0.4761266999412328,None,,,,aakash,2024-12-02_19h38.37.101,solo_project,2024.1.5,None,2024-12-02 19h38.52.026275 +0530,
insibate,ccrl,n,0,33,33,1,47.690529300132766,,,,,47.66639370005578,47.690529300132766,48.19272210006602,48.19272210006602,48.19272210006602,48.88413210003637,n,1,0.689669799990952,None,,,,aakash,2024-12-02_19h38.37.101,solo_project,2024.1.5,None,2024-12-02 19h38.52.026275 +0530,
reconal,ccrl,n,0,34,34,23,48.908283200114965,,,,,48.88541020010598,48.908283200114965,49.409002100117505,49.409002100117505,49.427746900124475,50.049859600141644,n,1,0.6369708001147956,None,,,,aakash,2024-12-02_19h38.37.101,solo_project,2024.1.5,None,2024-12-02 19h38.52.026275 +0530,
beloved  ,control,y,0,35,35,20,50.07636600011028,,,,,50.05093690007925,50.07636600011028,50.593406500061974,50.593406500061974,50.593406500061974,51.45293210004456,y,1,0.8549316001590341,None,,,,aakash,2024-12-02_19h38.37.101,solo_project,2024.1.5,None,2024-12-02 19h38.52.026275 +0530,
probice,ccrl,n,0,36,36,25,51.477877099998295,,,,,51.45419139997102,51.477877099998295,51.978737600147724,51.978737600147724,51.99666990013793,54.14127540006302,n,1,2.15191170014441,None,,,,aakash,2024-12-02_19h38.37.101,solo_project,2024.1.5,None,2024-12-02 19h38.52.026275 +0530,
rabigly,ccrl,n,0,37,37,19,54.16408949997276,,,,,54.14253790001385,54.16408949997276,54.66510320012458,54.66510320012458,54.68334910017438,55.29039330012165,n,1,0.5965444000903517,None,,,,aakash,2024-12-02_19h38.37.101,solo_project,2024.1.5,None,2024-12-02 19h38.52.026275 +0530,
removal  ,control,y,0,38,38,22,55.31532930000685,,,,,55.29163730004802,55.31532930000685,55.81594120012596,55.81594120012596,55.834177300101146,56.41115130018443,y,1,0.5927581998985261,None,,,,aakash,2024-12-02_19h38.37.101,solo_project,2024.1.5,None,2024-12-02 19h38.52.026275 +0530,
rapidly  ,control,y,0,39,39,18,56.43341860012151,,,,,56.41240330017172,56.43341860012151,56.93385220016353,56.93385220016353,56.95248039998114,57.59466499998234,y,1,0.6468753998633474,None,,,,aakash,2024-12-02_19h38.37.101,solo_project,2024.1.5,None,2024-12-02 19h38.52.026275 +0530,
,,,,,,,,,,,,,,,,,,,,,,57.59554390003905,57.61815550015308,62.599093300057575,aakash,2024-12-02_19h38.37.101,solo_project,2024.1.5,None,2024-12-02 19h38.52.026275 +0530,
