stimulus,condition,corr_resp,trials.thisRepN,trials.thisTrialN,trials.thisN,trials.thisIndex,thisRow.t,notes,instructions.started,text_2.started,instructions.stopped,trial.started,fixation.started,text.started,key_resp.started,fixation.stopped,trial.stopped,key_resp.keys,key_resp.corr,key_resp.rt,key_resp.duration,thank_you.started,text_3.started,thank_you.stopped,participant,date,expName,psychopyVersion,frameRate,expStart
,,,,,,,,,0.0274155,0.0401413,10.0083871,,,,,,,,,,,,,,aakash,2024-12-02_19h40.25.591,solo_project,2024.1.5,None,2024-12-02 19h40.41.527882 +0530
dacede,vvtl,n,0,0,0,39,10.0493805,,,,,10.0315743,10.0493805,10.5167548,10.5167548,10.5688523,11.1847125,n,1,0.6427113,None,,,,aakash,2024-12-02_19h40.25.591,solo_project,2024.1.5,None,2024-12-02 19h40.41.527882 +0530
quality  ,control,y,0,1,1,0,11.2006062,,,,,11.1862372,11.2006062,11.701299,11.701299,11.7199492,12.29547,y,1,0.584577,None,,,,aakash,2024-12-02_19h40.25.591,solo_project,2024.1.5,None,2024-12-02 19h40.41.527882 +0530
catogery,vvtl,n,0,2,2,17,12.3189,,,,,12.296537,12.3189,12.8209856,12.8209856,12.8209856,13.6475475,n,1,0.8178366,None,,,,aakash,2024-12-02_19h40.25.591,solo_project,2024.1.5,None,2024-12-02 19h40.41.527882 +0530
stolen  ,control,y,0,3,3,30,13.6699395,,,,,13.6487763,13.6699395,14.170673,14.170673,14.1893184,14.814371,y,1,0.637787,None,,,,aakash,2024-12-02_19h40.25.591,solo_project,2024.1.5,None,2024-12-02 19h40.41.527882 +0530
resume  ,control,y,0,4,4,8,14.8384112,,,,,14.8156081,14.8384112,15.3401849,15.3401849,15.3401849,15.8474802,y,1,0.4912619,None,,,,aakash,2024-12-02_19h40.25.591,solo_project,2024.1.5,None,2024-12-02 19h40.41.527882 +0530
comedy  ,control,y,0,5,5,34,15.8725167,,,,,15.8486837,15.8725167,16.3589752,16.3589752,16.3900389,17.0171458,y,1,0.6415281,None,,,,aakash,2024-12-02_19h40.25.591,solo_project,2024.1.5,None,2024-12-02 19h40.41.527882 +0530
delacite,vvtl,n,0,6,6,29,17.0404873,,,,,17.0183504,17.0404873,17.5426457,17.5426457,17.5426457,18.1186307,n,1,0.5679501,None,,,,aakash,2024-12-02_19h40.25.591,solo_project,2024.1.5,None,2024-12-02 19h40.41.527882 +0530
quilaty,vvtl,n,0,7,7,1,18.1417005,,,,,18.1198374,18.1417005,18.6270861,18.6270861,18.6444174,19.3693754,n,1,0.7385976,None,,,,aakash,2024-12-02_19h40.25.591,solo_project,2024.1.5,None,2024-12-02 19h40.41.527882 +0530
advosiry,vvtl,n,0,8,8,23,19.3922607,,,,,19.3706384,19.3922607,19.894181,19.894181,19.9120309,20.5874206,n,1,0.6886706,None,,,,aakash,2024-12-02_19h40.25.591,solo_project,2024.1.5,None,2024-12-02 19h40.41.527882 +0530
validity  ,control,y,0,9,9,26,20.6110937,,,,,20.5886244,20.6110937,21.1133156,21.1133156,21.1133156,22.0061633,y,1,0.8806208,None,,,,aakash,2024-12-02_19h40.25.591,solo_project,2024.1.5,None,2024-12-02 19h40.41.527882 +0530
ceremony  ,control,y,0,10,10,18,22.0293465,,,,,22.0073826,22.0293465,22.5301597,22.5301597,22.5489174,23.2072587,y,1,0.6700586,None,,,,aakash,2024-12-02_19h40.25.591,solo_project,2024.1.5,None,2024-12-02 19h40.41.527882 +0530
propasol,vvtl,n,0,11,11,7,23.23054,,,,,23.2084826,23.23054,23.7311326,23.7311326,23.7498773,24.3258071,n,1,0.5910736,None,,,,aakash,2024-12-02_19h40.25.591,solo_project,2024.1.5,None,2024-12-02 19h40.41.527882 +0530
decade  ,control,y,0,12,12,38,24.3483497,,,,,24.3272524,24.3483497,24.834368,24.834368,24.8661418,25.9585471,y,1,1.1150131,None,,,,aakash,2024-12-02_19h40.25.591,solo_project,2024.1.5,None,2024-12-02 19h40.41.527882 +0530
mistake  ,control,y,0,13,13,36,25.9838263,,,,,25.9597515,25.9838263,26.4694218,26.4694218,26.5007986,27.0092835,y,1,0.5110571,None,,,,aakash,2024-12-02_19h40.25.591,solo_project,2024.1.5,None,2024-12-02 19h40.41.527882 +0530
category  ,control,y,0,14,14,16,27.0348717,,,,,27.0104928,27.0348717,27.5352531,27.5352531,27.5539039,28.0606473,y,1,0.4943145,None,,,,aakash,2024-12-02_19h40.25.591,solo_project,2024.1.5,None,2024-12-02 19h40.41.527882 +0530
delicate  ,control,y,0,15,15,28,28.0860044,,,,,28.0618588,28.0860044,28.5865723,28.5865723,28.6048823,29.3473583,y,1,0.7421713,None,,,,aakash,2024-12-02_19h40.25.591,solo_project,2024.1.5,None,2024-12-02 19h40.41.527882 +0530
ceromeny,vvtl,n,0,16,16,19,29.3705956,,,,,29.3485645,29.3705956,29.871267,29.871267,29.8897946,30.6655455,n,1,0.780436,None,,,,aakash,2024-12-02_19h40.25.591,solo_project,2024.1.5,None,2024-12-02 19h40.41.527882 +0530
tribute  ,control,y,0,17,17,14,30.6886829,,,,,30.667092,30.6886829,31.1896926,31.1896926,31.2079206,31.8167446,y,1,0.6231375,None,,,,aakash,2024-12-02_19h40.25.591,solo_project,2024.1.5,None,2024-12-02 19h40.41.527882 +0530
ruseme,vvtl,n,0,18,18,9,31.8399545,,,,,31.8179748,31.8399545,32.3407245,32.3407245,32.3592871,33.066297,n,1,0.7170942,None,,,,aakash,2024-12-02_19h40.25.591,solo_project,2024.1.5,None,2024-12-02 19h40.41.527882 +0530
marginal  ,control,y,0,19,19,24,33.0914922,,,,,33.0675203,33.0914922,33.5934158,33.5934158,33.5934158,35.1689193,y,1,1.5445479,None,,,,aakash,2024-12-02_19h40.25.591,solo_project,2024.1.5,None,2024-12-02 19h40.41.527882 +0530
proposal  ,control,y,0,20,20,6,35.1936646,,,,,35.1701743,35.1936646,35.6783272,35.6783272,35.6950468,37.0231534,y,1,1.3418339,None,,,,aakash,2024-12-02_19h40.25.591,solo_project,2024.1.5,None,2024-12-02 19h40.41.527882 +0530
cemody,vvtl,n,0,21,21,35,37.0454362,,,,,37.0243619,37.0454362,37.5466222,37.5466222,37.5643364,38.3554733,n,1,0.7825924,None,,,,aakash,2024-12-02_19h40.25.591,solo_project,2024.1.5,None,2024-12-02 19h40.41.527882 +0530
mastike,vvtl,n,0,22,22,37,38.3804588,,,,,38.356699,38.3804588,38.8810208,38.8810208,38.8996342,40.2409904,n,1,1.3412947,None,,,,aakash,2024-12-02_19h40.25.591,solo_project,2024.1.5,None,2024-12-02 19h40.41.527882 +0530
ametaur,vvtl,n,0,23,23,21,40.2658499,,,,,40.242186,40.2658499,40.7668867,40.7668867,40.785112,41.360839,n,1,0.5815119,None,,,,aakash,2024-12-02_19h40.25.591,solo_project,2024.1.5,None,2024-12-02 19h40.41.527882 +0530
spicefic,vvtl,n,0,24,24,11,41.3834606,,,,,41.3622008,41.3834606,41.886083,41.886083,41.886083,43.2940052,n,1,1.3906227,None,,,,aakash,2024-12-02_19h40.25.591,solo_project,2024.1.5,None,2024-12-02 19h40.41.527882 +0530
stelon,vvtl,n,0,25,25,31,43.3192235,,,,,43.295224,43.3192235,43.8218052,43.8218052,43.8218052,45.9807916,n,1,2.1552544,None,,,,aakash,2024-12-02_19h40.25.591,solo_project,2024.1.5,None,2024-12-02 19h40.41.527882 +0530
radacil,vvtl,n,0,26,26,5,46.0054473,,,,,45.9820171,46.0054473,46.5060668,46.5060668,46.5241051,51.2359067,n,1,4.7020942,None,,,,aakash,2024-12-02_19h40.25.591,solo_project,2024.1.5,None,2024-12-02 19h40.41.527882 +0530
radical  ,control,y,0,27,27,4,51.2611598,,,,,51.2374671,51.2611598,51.7617317,51.7617317,51.7954841,53.006532,y,1,1.234122,None,,,,aakash,2024-12-02_19h40.25.591,solo_project,2024.1.5,None,2024-12-02 19h40.41.527882 +0530
trubite,vvtl,n,0,28,28,15,53.0297554,,,,,53.0079225,53.0297554,53.5303626,53.5303626,53.5489611,54.2065966,n,1,0.6473578,None,,,,aakash,2024-12-02_19h40.25.591,solo_project,2024.1.5,None,2024-12-02 19h40.41.527882 +0530
amateur  ,control,y,0,29,29,20,54.231289,,,,,54.2078573,54.231289,54.7317175,54.7317175,54.7499678,55.3912612,y,1,0.6456286,None,,,,aakash,2024-12-02_19h40.25.591,solo_project,2024.1.5,None,2024-12-02 19h40.41.527882 +0530
lacote,vvtl,n,0,30,30,33,55.4156598,,,,,55.3924867,55.4156598,55.9164135,55.9164135,55.9496434,56.5113476,n,1,0.5819674,None,,,,aakash,2024-12-02_19h40.25.591,solo_project,2024.1.5,None,2024-12-02 19h40.41.527882 +0530
mirganal,vvtl,n,0,31,31,25,56.5334685,,,,,56.5125376,56.5334685,57.0341509,57.0341509,57.0524209,57.6122691,y,0,0.5756752,None,,,,aakash,2024-12-02_19h40.25.591,solo_project,2024.1.5,None,2024-12-02 19h40.41.527882 +0530
locate  ,control,y,0,32,32,32,57.6344884,,,,,57.6135145,57.6344884,58.1354158,58.1354158,58.1537577,58.7630074,n,0,0.6246002,None,,,,aakash,2024-12-02_19h40.25.591,solo_project,2024.1.5,None,2024-12-02 19h40.41.527882 +0530
midecine,vvtl,n,0,33,33,3,58.7860816,,,,,58.7642458,58.7860816,59.2875988,59.2875988,59.2875988,60.179227,n,1,0.8814128,None,,,,aakash,2024-12-02_19h40.25.591,solo_project,2024.1.5,None,2024-12-02 19h40.41.527882 +0530
specemin,vvtl,n,0,34,34,13,60.2042568,,,,,60.1804175,60.2042568,60.7215505,60.7215505,60.7215505,61.2802809,n,1,0.5445622,None,,,,aakash,2024-12-02_19h40.25.591,solo_project,2024.1.5,None,2024-12-02 19h40.41.527882 +0530
viladity,vvtl,n,0,35,35,27,61.3054791,,,,,61.2815032,61.3054791,61.8063215,61.8063215,61.8247195,62.7670504,n,1,0.9418529,None,,,,aakash,2024-12-02_19h40.25.591,solo_project,2024.1.5,None,2024-12-02 19h40.41.527882 +0530
specific  ,control,y,0,36,36,10,62.7903173,,,,,62.7683557,62.7903173,63.2913072,63.2913072,63.3093644,64.0368665,y,1,0.7434559,None,,,,aakash,2024-12-02_19h40.25.591,solo_project,2024.1.5,None,2024-12-02 19h40.41.527882 +0530
advisory  ,control,y,0,37,37,22,64.058589,,,,,64.0381193,64.058589,64.5591381,64.5591381,64.5772424,68.1381741,y,1,3.56777,None,,,,aakash,2024-12-02_19h40.25.591,solo_project,2024.1.5,None,2024-12-02 19h40.41.527882 +0530
medicine  ,control,y,0,38,38,2,68.1628738,,,,,68.1394002,68.1628738,68.6638978,68.6638978,68.6828958,69.5399695,y,1,0.8716119,None,,,,aakash,2024-12-02_19h40.25.591,solo_project,2024.1.5,None,2024-12-02 19h40.41.527882 +0530
specimen  ,control,y,0,39,39,12,69.5645042,,,,,69.5412094,69.5645042,70.0652186,70.0652186,70.0834058,70.7761302,y,1,0.6993369,None,,,,aakash,2024-12-02_19h40.25.591,solo_project,2024.1.5,None,2024-12-02 19h40.41.527882 +0530
,,,,,,,,,,,,,,,,,,,,,,70.7770309,70.7993045,75.7948378,aakash,2024-12-02_19h40.25.591,solo_project,2024.1.5,None,2024-12-02 19h40.41.527882 +0530
