stimulus,condition,corr_resp,trials.thisRepN,trials.thisTrialN,trials.thisN,trials.thisIndex,thisRow.t,notes,instructions.started,text_2.started,instructions.stopped,trial.started,fixation.started,text.started,key_resp.started,fixation.stopped,trial.stopped,key_resp.keys,key_resp.corr,key_resp.rt,key_resp.duration,thank_you.started,text_3.started,thank_you.stopped,participant,date,expName,psychopyVersion,frameRate,expStart,
,,,,,,,,,0.027890299912542105,0.039580099983140826,10.023704399936832,,,,,,,,,,,,,,neepa,2024-12-02_10h06.37.656,solo_project,2024.1.5,None,2024-12-02 10h07.01.065662 +0530,
setanor,cctl,n,0,0,0,9,10.065839699935168,,,,,10.052223399979994,10.065839699935168,10.516879699891433,10.516879699891433,10.568512999918312,13.63837279996369,n,1,3.000712199951522,None,,,,neepa,2024-12-02_10h06.37.656,solo_project,2024.1.5,None,2024-12-02 10h07.01.065662 +0530,
relative  ,control,y,0,1,1,34,13.669232899905182,,,,,13.640849999967031,13.669232899905182,14.17062539991457,14.17062539991457,14.188798399991356,16.69830920000095,y,1,2.4951885999180377,None,,,,neepa,2024-12-02_10h06.37.656,solo_project,2024.1.5,None,2024-12-02 10h07.01.065662 +0530,
romantic  ,control,y,0,2,2,26,16.72344989993144,,,,,16.699601199943572,16.72344989993144,17.223990199971013,17.223990199971013,17.242364899953827,19.88519009994343,y,1,2.6557268999749795,None,,,,neepa,2024-12-02_10h06.37.656,solo_project,2024.1.5,None,2024-12-02 10h07.01.065662 +0530,
clinical  ,control,y,0,3,3,32,19.9101538999239,,,,,19.886419799993746,19.9101538999239,20.41251910000574,20.41251910000574,20.41251910000574,22.30510769993998,y,1,1.8783551999367774,None,,,,neepa,2024-12-02_10h06.37.656,solo_project,2024.1.5,None,2024-12-02 10h07.01.065662 +0530,
storage  ,control,y,0,4,4,14,22.3295370999258,,,,,22.306162899942137,22.3295370999258,22.8152566999197,22.8152566999197,22.84693769994192,24.79278069990687,y,1,1.9631403000093997,None,,,,neepa,2024-12-02_10h06.37.656,solo_project,2024.1.5,None,2024-12-02 10h07.01.065662 +0530,
donimant,cctl,n,0,5,5,31,24.815613199956715,,,,,24.794018199900165,24.815613199956715,25.316098099923693,25.316098099923693,25.3345250999555,27.877353999996558,n,1,2.5516028000274673,None,,,,neepa,2024-12-02_10h06.37.656,solo_project,2024.1.5,None,2024-12-02 10h07.01.065662 +0530,
refusal  ,control,y,0,6,6,4,27.90222619997803,,,,,27.87857850000728,27.90222619997803,28.402818499947898,28.402818499947898,28.421364999958314,30.363644299912266,y,1,1.9589089000364766,None,,,,neepa,2024-12-02_10h06.37.656,solo_project,2024.1.5,None,2024-12-02 10h07.01.065662 +0530,
locigal,cctl,n,0,7,7,13,30.388323899940588,,,,,30.364952599979006,30.388323899940588,30.88884579995647,30.88884579995647,30.90689719992224,33.26783439994324,n,1,2.3703040999826044,None,,,,neepa,2024-12-02_10h06.37.656,solo_project,2024.1.5,None,2024-12-02 10h07.01.065662 +0530,
mobile  ,control,y,0,8,8,36,33.291516799945384,,,,,33.2690808000043,33.291516799945384,33.77661529998295,33.77661529998295,33.793535199947655,36.00470629998017,y,1,2.2127304000314325,None,,,,neepa,2024-12-02_10h06.37.656,solo_project,2024.1.5,None,2024-12-02 10h07.01.065662 +0530,
pacific  ,control,y,0,9,9,10,36.02777759998571,,,,,36.005957199959084,36.02777759998571,36.51328809990082,36.51328809990082,36.52959779999219,38.42180429992732,y,1,1.8791292000096291,None,,,,neepa,2024-12-02_10h06.37.656,solo_project,2024.1.5,None,2024-12-02 10h07.01.065662 +0530,
opmital,cctl,n,0,10,10,3,38.447090399917215,,,,,38.423331999918446,38.447090399917215,38.94775419996586,38.94775419996586,38.966172299929895,41.32546490000095,n,1,2.3688769000582397,None,,,,neepa,2024-12-02_10h06.37.656,solo_project,2024.1.5,None,2024-12-02 10h07.01.065662 +0530,
ronamtic,cctl,n,0,11,11,27,41.3502069999231,,,,,41.326742699951865,41.3502069999231,41.8360238999594,41.8360238999594,41.85232279996853,44.08033629995771,n,1,2.238378900103271,None,,,,neepa,2024-12-02_10h06.37.656,solo_project,2024.1.5,None,2024-12-02 10h07.01.065662 +0530,
retome,cctl,n,0,12,12,23,44.10317129991017,,,,,44.081620699958876,44.10317129991017,44.60394029994495,44.60394029994495,44.62189889990259,46.91653359995689,n,1,2.3056743000634015,None,,,,neepa,2024-12-02_10h06.37.656,solo_project,2024.1.5,None,2024-12-02 10h07.01.065662 +0530,
marine  ,control,y,0,13,13,20,46.93972979998216,,,,,46.91777989990078,46.93972979998216,47.42540760000702,47.42540760000702,47.44182109995745,49.402495899936184,y,1,1.97554020001553,None,,,,neepa,2024-12-02_10h06.37.656,solo_project,2024.1.5,None,2024-12-02 10h07.01.065662 +0530,
remote  ,control,y,0,14,14,22,49.425757299992256,,,,,49.40377089998219,49.425757299992256,49.9108552999096,49.9108552999096,49.9277477998985,51.867060699965805,y,1,1.9462665000464767,None,,,,neepa,2024-12-02_10h06.37.656,solo_project,2024.1.5,None,2024-12-02 10h07.01.065662 +0530,
evident  ,control,y,0,15,15,18,51.87914249999449,,,,,51.86779689998366,51.87914249999449,52.379577999934554,52.379577999934554,52.379577999934554,54.23797569994349,y,1,1.8457671999931335,None,,,,neepa,2024-12-02_10h06.37.656,solo_project,2024.1.5,None,2024-12-02 10h07.01.065662 +0530,
resufal,cctl,n,0,16,16,5,54.264366299961694,,,,,54.23864130000584,54.264366299961694,54.76491799997166,54.76491799997166,54.78306899999734,56.64213459996972,n,1,1.8746095999376848,None,,,,neepa,2024-12-02_10h06.37.656,solo_project,2024.1.5,None,2024-12-02 10h07.01.065662 +0530,
optimal  ,control,y,0,17,17,2,56.667063499917276,,,,,56.643438900006004,56.667063499917276,57.1674411999993,57.1674411999993,57.185632599983364,59.746173799969256,y,1,2.5766596000175923,None,,,,neepa,2024-12-02_10h06.37.656,solo_project,2024.1.5,None,2024-12-02 10h07.01.065662 +0530,
fornute,cctl,n,0,18,18,7,59.77036799991038,,,,,59.747299399925396,59.77036799991038,60.270974899991415,60.270974899991415,60.28908099990804,62.448189099901356,n,1,2.145381899899803,None,,,,neepa,2024-12-02_10h06.37.656,solo_project,2024.1.5,None,2024-12-02 10h07.01.065662 +0530,
fortune  ,control,y,0,19,19,6,62.473526799934916,,,,,62.449446399929,62.473526799934916,62.97386419994291,62.97386419994291,62.99179889995139,65.11793449998368,y,1,2.133534500026144,None,,,,neepa,2024-12-02_10h06.37.656,solo_project,2024.1.5,None,2024-12-02 10h07.01.065662 +0530,
senator  ,control,y,0,20,20,8,65.1429247999331,,,,,65.11915149993729,65.1429247999331,65.62812599993777,65.62812599993777,65.66013109998312,68.00456449994817,y,1,2.3519468000158668,None,,,,neepa,2024-12-02_10h06.37.656,solo_project,2024.1.5,None,2024-12-02 10h07.01.065662 +0530,
dominant  ,control,y,0,21,21,30,68.03239710000344,,,,,68.00580229994375,68.03239710000344,68.51524029998109,68.51524029998109,68.54820259998087,71.12685889995191,y,1,2.603042200091295,None,,,,neepa,2024-12-02_10h06.37.656,solo_project,2024.1.5,None,2024-12-02 10h07.01.065662 +0530,
clicinal,cctl,n,0,22,22,33,71.14936729997862,,,,,71.12811989989132,71.14936729997862,71.64990299998317,71.64990299998317,71.66845579992514,74.06135799991898,n,1,2.4025082999141887,None,,,,neepa,2024-12-02_10h06.37.656,solo_project,2024.1.5,None,2024-12-02 10h07.01.065662 +0530,
criminal  ,control,y,0,23,23,38,74.08602279995102,,,,,74.06254600000102,74.08602279995102,74.5867521999171,74.5867521999171,74.60513179993723,76.73119659989607,y,1,2.1311539000598714,None,,,,neepa,2024-12-02_10h06.37.656,solo_project,2024.1.5,None,2024-12-02 10h07.01.065662 +0530,
strategy  ,control,y,0,24,24,0,76.75570999993943,,,,,76.73237609991338,76.75570999993943,77.25615109992214,77.25615109992214,77.27415409998503,79.58410639991052,y,1,2.3254828000208363,None,,,,neepa,2024-12-02_10h06.37.656,solo_project,2024.1.5,None,2024-12-02 10h07.01.065662 +0530,
stogare,cctl,n,0,25,25,15,79.60912839998491,,,,,79.58533429994714,79.60912839998491,80.10926699999254,80.10926699999254,80.12763309990987,82.40486349991988,n,1,2.2894155000103638,None,,,,neepa,2024-12-02_10h06.37.656,solo_project,2024.1.5,None,2024-12-02 10h07.01.065662 +0530,
velocity  ,control,y,0,26,26,24,82.42865869996604,,,,,82.40611399989575,82.42865869996604,82.92906459991354,82.92906459991354,82.94740539998747,85.5908635999076,y,1,2.6588795999996364,None,,,,neepa,2024-12-02_10h06.37.656,solo_project,2024.1.5,None,2024-12-02 10h07.01.065662 +0530,
retalive,cctl,n,0,27,27,35,85.61543010000605,,,,,85.59209999989253,85.61543010000605,86.10085919999983,86.10085919999983,86.1325270999223,87.87778439989779,n,1,1.7742161001078784,None,,,,neepa,2024-12-02_10h06.37.656,solo_project,2024.1.5,None,2024-12-02 10h07.01.065662 +0530,
liretal,cctl,n,0,28,28,17,87.9009954999201,,,,,87.87931459990796,87.9009954999201,88.40166839992162,88.40166839992162,88.42002759990282,90.43026699998882,n,1,2.0205042999004945,None,,,,neepa,2024-12-02_10h06.37.656,solo_project,2024.1.5,None,2024-12-02 10h07.01.065662 +0530,
literal  ,control,y,0,29,29,16,90.4539062998956,,,,,90.43146379990503,90.4539062998956,90.95449859998189,90.95449859998189,90.97285759996157,93.44914979999885,y,1,2.4699563999893144,None,,,,neepa,2024-12-02_10h06.37.656,solo_project,2024.1.5,None,2024-12-02 10h07.01.065662 +0530,
molibe,cctl,n,0,30,30,37,93.47394969989546,,,,,93.45041109994054,93.47394969989546,93.97446830000263,93.97446830000263,93.99281279998831,95.46773099992424,n,1,1.4651362999575213,None,,,,neepa,2024-12-02_10h06.37.656,solo_project,2024.1.5,None,2024-12-02 10h07.01.065662 +0530,
crinimal,cctl,n,0,31,31,39,95.49283099989407,,,,,95.46896209998522,95.49283099989407,95.99304659990594,95.99304659990594,96.01080639997963,97.43662759999279,n,1,1.417715199990198,None,,,,neepa,2024-12-02_10h06.37.656,solo_project,2024.1.5,None,2024-12-02 10h07.01.065662 +0530,
paficic,cctl,n,0,32,32,11,97.46153259999119,,,,,97.4378753999481,97.46153259999119,97.9472047999734,97.9472047999734,97.96392429992557,99.42060559999663,n,1,1.4648112000431865,None,,,,neepa,2024-12-02_10h06.37.656,solo_project,2024.1.5,None,2024-12-02 10h07.01.065662 +0530,
edivent,cctl,n,0,33,33,19,99.44696410000324,,,,,99.42135889991187,99.44696410000324,99.9476246999111,99.9476246999111,99.9659642999759,101.5421081999084,n,1,1.5925823000725359,None,,,,neepa,2024-12-02_10h06.37.656,solo_project,2024.1.5,None,2024-12-02 10h07.01.065662 +0530,
stragety,cctl,n,0,34,34,1,101.5660664999159,,,,,101.54338169994298,101.5660664999159,102.06664179998916,102.06664179998916,102.08513109991327,104.32902289996855,n,1,2.2535546999424696,None,,,,neepa,2024-12-02_10h06.37.656,solo_project,2024.1.5,None,2024-12-02 10h07.01.065662 +0530,
manire,cctl,n,0,35,35,21,104.35235109995119,,,,,104.33028639992699,104.35235109995119,104.85301949991845,104.85301949991845,104.87148519989569,106.51586899999529,n,1,1.6565170000540093,None,,,,neepa,2024-12-02_10h06.37.656,solo_project,2024.1.5,None,2024-12-02 10h07.01.065662 +0530,
original  ,control,y,0,36,36,28,106.53819239989389,,,,,106.51707349997014,106.53819239989389,107.03879319992848,107.03879319992848,107.05717609997373,108.91756499989424,y,1,1.8680688000749797,None,,,,neepa,2024-12-02_10h06.37.656,solo_project,2024.1.5,None,2024-12-02 10h07.01.065662 +0530,
orinigal,cctl,n,0,37,37,29,108.94070159993134,,,,,108.9189236999955,108.94070159993134,109.42592769989278,109.42592769989278,109.44250059989281,111.3376227999106,n,1,1.910205400083214,None,,,,neepa,2024-12-02_10h06.37.656,solo_project,2024.1.5,None,2024-12-02 10h07.01.065662 +0530,
vecolity,cctl,n,0,38,38,25,111.36000499990769,,,,,111.33913829992525,111.36000499990769,111.86057679995429,111.86057679995429,111.87899749993812,113.97363449994009,n,1,2.1082175000337884,None,,,,neepa,2024-12-02_10h06.37.656,solo_project,2024.1.5,None,2024-12-02 10h07.01.065662 +0530,
logical  ,control,y,0,39,39,12,113.99626949999947,,,,,113.97488479991443,113.99626949999947,114.49691099999472,114.49691099999472,114.51486909994856,116.42145919997711,y,1,1.9112625000998378,None,,,,neepa,2024-12-02_10h06.37.656,solo_project,2024.1.5,None,2024-12-02 10h07.01.065662 +0530,
,,,,,,,,,,,,,,,,,,,,,,116.42227849992923,116.43323629989754,121.42869119998068,neepa,2024-12-02_10h06.37.656,solo_project,2024.1.5,None,2024-12-02 10h07.01.065662 +0530,
