delay,freq,condition,trials.thisRepN,trials.thisTrialN,trials.thisN,trials.thisIndex,thisRow.t,notes,trial.started,fixation.started,polygon.started,key_resp.started,fixation.stopped,trial.stopped,key_resp.keys,key_resp.rt,key_resp.duration,beep.started,sound_1.started,sound_1.stopped,beep.stopped,response.started,text.started,textbox.started,button.started,response.stopped,textbox.text,button.numClicks,button.timesOn,button.timesOff,participant,session,date,expName,psychopyVersion,frameRate,expStart,
0.1,400,unexp,0,0,0,0,0.07108410005457699,,0.05962450010702014,0.07108410005457699,1.0221508000977337,1.0221508000977337,1.072809300152585,2.4978333001490682,space,1.4609991998877376,None,2.5009437000844628,2.607975266703094,2.956956700189039,2.913236200110987,2.9132875001523644,2.956956700189039,2.956956700189039,2.956956700189039,6.42171090003103,400,1,[3.504686899948865],[3.5047142999246716],754882,001,2024-11-14_20h38.51.146,intentional_binding_exp,2024.1.5,None,2024-11-14 20h38.58.927232 +0530,
0.7,1000,exp,0,1,1,8,6.444552200147882,,6.427030000137165,6.444552200147882,7.429614400025457,7.429614400025457,7.44650960015133,7.955601500114426,space,0.5154499998316169,None,7.956776600098237,8.664865566712495,9.014078000094742,8.97187600005418,8.971943500218913,9.014078000094742,9.014078000094742,9.014078000094742,11.0558241000399,400,1,[2.08126650005579],[2.0812776000238955],754882,001,2024-11-14_20h38.51.146,intentional_binding_exp,2024.1.5,None,2024-11-14 20h38.58.927232 +0530,
0.1,1000,exp,0,2,2,9,11.067139600170776,,11.057237200206146,11.067139600170776,12.068200200097635,12.068200200097635,12.068200200097635,14.146100900135934,space,2.0726512998808175,None,14.14733160007745,14.255420866717275,14.603041700087488,14.562381100142375,14.562416000058874,14.603041700087488,14.603041700087488,14.603041700087488,16.850346700055525,100,1,[2.2855742999818176],[2.2855970000382513],754882,001,2024-11-14_20h38.51.146,intentional_binding_exp,2024.1.5,None,2024-11-14 20h38.58.927232 +0530,
0.1,1000,exp,0,3,3,3,16.874450400006026,,16.853178900200874,16.874450400006026,17.857531000161543,17.857531000161543,17.8746797000058,18.63018080010079,space,0.7608331001829356,None,18.631325700087473,18.741987366757044,19.09267790010199,19.05184130021371,19.051891200011596,19.09267790010199,19.09267790010199,19.09267790010199,20.568499900167808,100,1,[1.514039599802345],[1.514053599908948],754882,001,2024-11-14_20h38.51.146,intentional_binding_exp,2024.1.5,None,2024-11-14 20h38.58.927232 +0530,
0.7,400,unexp,0,4,4,2,20.5932662000414,,20.5703713002149,20.5932662000414,21.57846560003236,21.57846560003236,21.595314900157973,22.222453200025484,space,0.6371761001646519,None,22.22367800003849,22.930134166792655,23.262756700161844,23.23300680005923,23.233063400024548,23.262756700161844,23.262756700161844,23.262756700161844,25.324885900132358,400,1,[2.0890377000905573],[2.0890593000221997],754882,001,2024-11-14_20h38.51.146,intentional_binding_exp,2024.1.5,None,2024-11-14 20h38.58.927232 +0530,
0.7,1000,exp,0,5,5,5,25.349233700195327,,25.32743290020153,25.349233700195327,26.333676400128752,26.333676400128752,26.350393900182098,26.90882940008305,space,0.56387780001387,None,26.909951000008732,27.61845146684597,27.968261000001803,27.926483600167558,27.92653390020132,27.968261000001803,27.968261000001803,27.968261000001803,30.21061040018685,400,1,[2.28133050003089],[2.2813444999046624],754882,001,2024-11-14_20h38.51.146,intentional_binding_exp,2024.1.5,None,2024-11-14 20h38.58.927232 +0530,
0.4,1000,exp,0,6,6,7,30.22125590010546,,30.212634700117633,30.22125590010546,31.222493100212887,31.222493100212887,31.222493100212887,31.7941349002067,space,0.558998900000006,None,31.794744700193405,32.2066842667448,32.53970670001581,32.51329300017096,32.51334669999778,32.53970670001581,32.53970670001581,32.53970670001581,34.30074980016798,100,1,[1.7846021999139339],[1.784620099933818],754882,001,2024-11-14_20h38.51.146,intentional_binding_exp,2024.1.5,None,2024-11-14 20h38.58.927232 +0530,
0.4,1000,exp,0,7,7,4,34.324918900150806,,34.30293740006164,34.324918900150806,35.32604980003089,35.32604980003089,35.34379440010525,35.86835190001875,space,0.534707099897787,None,35.86939790006727,36.27794596675473,36.62866020016372,36.587858100188896,36.58790830010548,36.62866020016372,36.62866020016372,36.62866020016372,38.2396432000678,100,1,[1.6486490999814123],[1.6486714000348002],754882,001,2024-11-14_20h38.51.146,intentional_binding_exp,2024.1.5,None,2024-11-14 20h38.58.927232 +0530,
0.7,1000,exp,0,8,8,11,38.262831000145525,,38.243251900188625,38.262831000145525,39.2477041000966,39.2477041000966,39.26444110018201,39.75467270007357,space,0.4948791000060737,None,39.75585130020045,40.46586226678143,40.79838050017133,40.768964800052345,40.768992700148374,40.79838050017133,40.79838050017133,40.79838050017133,43.6239716000855,700,1,[2.853284199954942],[2.8532950000371784],754882,001,2024-11-14_20h38.51.146,intentional_binding_exp,2024.1.5,None,2024-11-14 20h38.58.927232 +0530,
0.4,400,unexp,0,9,9,1,43.63602810003795,,43.62528040003963,43.63602810003795,44.63732270011678,44.63732270011678,44.63732270011678,45.27854460012168,space,0.6093040001578629,None,45.279714200180024,45.68833976687553,46.03817990003154,45.995837500086054,45.995889000128955,46.03817990003154,46.03817990003154,46.03817990003154,48.567691300064325,700,1,[2.569078699918464],[2.5690949000418186],754882,001,2024-11-14_20h38.51.146,intentional_binding_exp,2024.1.5,None,2024-11-14 20h38.58.927232 +0530,
0.4,1000,exp,0,10,10,10,48.590784600004554,,48.569571000058204,48.590784600004554,49.59174170019105,49.59174170019105,49.609507700195536,50.86980880005285,space,1.2693225999828428,None,50.87094000005163,51.27773736679616,51.62839590013027,51.585098900133744,51.58515070006251,51.62839590013027,51.62839590013027,51.62839590013027,54.62072930019349,400,1,[3.0330735000316054],[3.0330852998886257],754882,001,2024-11-14_20h38.51.146,intentional_binding_exp,2024.1.5,None,2024-11-14 20h38.58.927232 +0530,
0.1,1000,exp,0,11,11,6,54.63107870006934,,54.6221595001407,54.63107870006934,55.63284380012192,55.63284380012192,55.63284380012192,56.18987640016712,space,0.5428190999664366,None,56.190755600109696,56.29990936682249,56.64990010019392,56.60907410015352,56.60912220017053,56.64990010019392,56.64990010019392,56.64990010019392,58.71163590019569,400,1,[2.099546100012958],[2.0995637997984886],754882,001,2024-11-14_20h38.51.146,intentional_binding_exp,2024.1.5,None,2024-11-14 20h38.58.927232 +0530,
0.1,1000,exp,1,0,12,6,58.73488580016419,,58.71385810011998,58.73488580016419,59.72013620007783,59.72013620007783,59.73693950008601,60.32700510020368,space,0.601728499867022,None,60.32765690004453,60.43763526674981,60.770661800168455,60.73856920003891,60.738622000208125,60.770661800168455,60.770661800168455,60.770661800168455,62.24730370007455,100,1,[1.506040700012818],[1.5060566999018192],754882,001,2024-11-14_20h38.51.146,intentional_binding_exp,2024.1.5,None,2024-11-14 20h38.58.927232 +0530,
0.7,1000,exp,1,1,13,11,62.272218000143766,,62.25013350020163,62.272218000143766,63.25775950006209,63.25775950006209,63.274035800015554,63.73460700013675,space,0.47267309995368123,None,63.73583270004019,64.44195376668746,64.77484000008553,64.74785540020093,64.74790090019815,64.77484000008553,64.77484000008553,64.77484000008553,66.46618230012245,100,1,[1.7157564000226557],[1.7157693000044674],754882,001,2024-11-14_20h38.51.146,intentional_binding_exp,2024.1.5,None,2024-11-14 20h38.58.927232 +0530,
0.4,1000,exp,1,2,14,4,66.47736700018868,,66.46843800018542,66.47736700018868,67.47882350021973,67.47882350021973,67.47882350021973,67.9512876002118,space,0.46340580005198717,None,67.95197030017152,68.36342456686931,68.69594570016488,68.66430790000595,68.66435070009902,68.69594570016488,68.69594570016488,68.69594570016488,69.98921540006995,100,1,[1.3222910000476986],[1.3223097999580204],754882,001,2024-11-14_20h38.51.146,intentional_binding_exp,2024.1.5,None,2024-11-14 20h38.58.927232 +0530,
0.1,1000,exp,1,3,15,3,70.0140657001175,,69.9915358000435,70.0140657001175,70.99927340005524,70.99927340005524,71.01587620005012,72.01048670010641,space,0.9989334000274539,None,72.01167020015419,72.11713136668938,72.45036720018834,72.41840380011126,72.41845019999892,72.45036720018834,72.45036720018834,72.45036720018834,74.31284220004454,100,1,[1.8916180999949574],[1.8916356000117958],754882,001,2024-11-14_20h38.51.146,intentional_binding_exp,2024.1.5,None,2024-11-14 20h38.58.927232 +0530,
0.4,1000,exp,1,4,16,7,74.3355104001239,,74.3152826000005,74.3355104001239,75.33645520010032,75.33645520010032,75.35417590010911,76.36349860019982,space,0.9926525000482798,None,76.36487030005082,76.77231676673206,77.10516830021515,77.0782839001622,77.07833210006356,77.10516830021515,77.10516830021515,77.10516830021515,78.44734210008755,100,1,[1.366437799995765],[1.366452099988237],754882,001,2024-11-14_20h38.51.146,intentional_binding_exp,2024.1.5,None,2024-11-14 20h38.58.927232 +0530,
0.1,1000,exp,1,5,17,9,78.45758710009977,,78.44933930016123,78.45758710009977,79.4585945000872,79.4585945000872,79.4585945000872,79.7820710001979,space,0.31344040017575026,None,79.78335790010169,79.89218586666199,80.22522940021008,80.19445130019449,80.1944947000593,80.22522940021008,80.22522940021008,80.22522940021008,81.58594870008528,100,1,[1.3886454000603408],[1.3886633000802249],754882,001,2024-11-14_20h38.51.146,intentional_binding_exp,2024.1.5,None,2024-11-14 20h38.58.927232 +0530,
0.7,400,unexp,1,6,18,2,81.61007160018198,,81.5882363000419,81.61007160018198,82.59674100019038,82.59674100019038,82.61200580000877,82.97218430018984,space,0.37369899987243116,None,82.97326930006966,83.68006756675119,84.03062370000407,83.9903212999925,83.99036530009471,84.03062370000407,84.03062370000407,84.03062370000407,86.29158020019531,700,1,[2.2984259000513703],[2.2984452000819147],754882,001,2024-11-14_20h38.51.146,intentional_binding_exp,2024.1.5,None,2024-11-14 20h38.58.927232 +0530,
0.4,1000,exp,1,7,19,10,86.31548049999401,,86.29392680013552,86.31548049999401,87.30069010006264,87.30069010006264,87.33296880009584,87.85702780005522,space,0.552366100018844,None,87.85769090009853,88.26817326672996,88.61818680004217,88.5771406001877,88.57718400005251,88.61818680004217,88.61818680004217,88.61818680004217,90.34095280012116,400,1,[1.7615263999905437],[1.761533600045368],754882,001,2024-11-14_20h38.51.146,intentional_binding_exp,2024.1.5,None,2024-11-14 20h38.58.927232 +0530,
0.4,400,unexp,1,8,20,1,90.35395120014437,,90.34188050008379,90.35395120014437,91.3547987001948,91.3547987001948,91.3547987001948,91.84508410003036,space,0.48894429998472333,None,91.8458460001275,92.25601146679061,92.60639380011708,92.56647210009396,92.56652550003491,92.60639380011708,92.60639380011708,92.60639380011708,94.43291180022061,400,1,[1.8635148000903428],[1.8635317999869585],754882,001,2024-11-14_20h38.51.146,intentional_binding_exp,2024.1.5,None,2024-11-14 20h38.58.927232 +0530,
0.1,400,unexp,1,9,21,0,94.45737510011531,,94.43524540006183,94.45737510011531,95.44277310022153,95.44277310022153,95.45925070019439,96.51874550012872,space,1.0422056000679731,None,96.51986330002546,96.62720516679498,96.96018290007487,96.93066210020334,96.93070380017161,96.96018290007487,96.96018290007487,96.96018290007487,99.40648380015045,400,1,[2.4729590001516044],[2.47297630016692],754882,001,2024-11-14_20h38.51.146,intentional_binding_exp,2024.1.5,None,2024-11-14 20h38.58.927232 +0530,
0.7,1000,exp,1,10,22,5,99.42950990004465,,99.408775200136,99.42950990004465,100.41458570002578,100.41458570002578,100.43141320021823,101.13988410006277,space,0.7206075999420136,None,101.1412095001433,101.8497726668759,102.18230940005742,102.15569770010188,102.15574370021932,102.18230940005742,102.18230940005742,102.18230940005742,103.87638840009458,700,1,[1.7177230999805033],[1.7177412998862565],754882,001,2024-11-14_20h38.51.146,intentional_binding_exp,2024.1.5,None,2024-11-14 20h38.58.927232 +0530,
0.7,1000,exp,1,11,23,8,103.90105730015785,,103.87874060007744,103.90105730015785,104.88624730007723,104.88624730007723,104.90335780009627,105.5597707000561,space,0.6638568001799285,None,105.56051490013488,106.27275086666147,106.62037880020216,106.58395570004359,106.58399740001187,106.62037880020216,106.62037880020216,106.62037880020216,109.18087000004016,700,1,[2.594038200099021],[2.5940541999880224],754882,001,2024-11-14_20h38.51.146,intentional_binding_exp,2024.1.5,None,2024-11-14 20h38.58.927232 +0530,
0.1,400,unexp,2,0,24,0,109.20690230000764,,109.18343490012921,109.20690230000764,110.19219700014219,110.19219700014219,110.20944740017876,110.71771030011587,space,0.5108558998908848,None,110.71863700007088,110.8261094666707,111.15914920018986,111.12639940017834,111.12647010013461,111.15914920018986,111.15914920018986,111.15914920018986,113.487252100138,400,1,[2.358084599953145],[2.3581032999791205],754882,001,2024-11-14_20h38.51.146,intentional_binding_exp,2024.1.5,None,2024-11-14 20h38.58.927232 +0530,
0.7,1000,exp,2,1,25,5,113.51167860021815,,113.48993950011209,113.51167860021815,114.49675050005317,114.49675050005317,114.51338190003298,115.47435100004077,space,0.9693336000200361,None,115.47532670013607,116.18219826679366,116.53169380011968,116.4918564001564,116.49191070022061,116.53169380011968,116.53169380011968,116.53169380011968,118.2758719001431,700,1,[1.7811436001211405],[1.7811611001379788],754882,001,2024-11-14_20h38.51.146,intentional_binding_exp,2024.1.5,None,2024-11-14 20h38.58.927232 +0530,
0.7,400,unexp,2,2,26,2,118.30013180011883,,118.27820880012587,118.30013180011883,119.2854368002154,119.2854368002154,119.30226430017501,120.15900190011598,space,0.8654044000431895,None,120.15963300014846,120.87107656669492,121.2040818000678,121.17439480009489,121.17443870007992,121.2040818000678,121.2040818000678,121.2040818000678,124.11180720012635,400,1,[2.93509229994379],[2.9351033000275493],754882,001,2024-11-14_20h38.51.146,intentional_binding_exp,2024.1.5,None,2024-11-14 20h38.58.927232 +0530,
0.4,1000,exp,2,3,27,10,124.12404240015894,,124.1132003001403,124.12404240015894,125.12509740004316,125.12509740004316,125.12509740004316,125.63549120002426,space,0.5079932000953704,None,125.63655640021898,126.04302856681558,126.3935321001336,126.34776460006833,126.34780900017358,126.3935321001336,126.3935321001336,126.3935321001336,128.1370448002126,100,1,[1.7864990001544356],[1.7865193001925945],754882,001,2024-11-14_20h38.51.146,intentional_binding_exp,2024.1.5,None,2024-11-14 20h38.58.927232 +0530,
0.4,400,unexp,2,4,28,1,128.16136540006846,,128.13926690001972,128.16136540006846,129.14631930016913,129.14631930016913,129.16288890014403,129.45199250010774,space,0.29358689999207854,None,129.45273960009217,129.86380986665998,130.1966333000455,130.16645590006374,130.16650220006704,130.1966333000455,130.1966333000455,130.1966333000455,131.62312330002896,400,1,[1.4535381000023335],[1.4535538998898119],754882,001,2024-11-14_20h38.51.146,intentional_binding_exp,2024.1.5,None,2024-11-14 20h38.58.927232 +0530,
0.4,1000,exp,2,5,29,7,131.64831300009973,,131.62622270011343,131.64831300009973,132.6334164000582,132.6334164000582,132.65019900002517,132.83884140010923,space,0.19131899997591972,None,132.83951100008562,133.2507275667197,133.60056950012222,133.55831950018182,133.55836490006186,133.60056950012222,133.60056950012222,133.60056950012222,134.79443310014904,100,1,[1.2332548999693245],[1.2332733999937773],754882,001,2024-11-14_20h38.51.146,intentional_binding_exp,2024.1.5,None,2024-11-14 20h38.58.927232 +0530,
0.1,1000,exp,2,6,30,3,134.8182000000961,,134.79672790016048,134.8182000000961,135.80338640022092,135.80338640022092,135.82020760001615,136.1302757000085,space,0.3237848000135273,None,136.1312962002121,136.23743186687742,136.58761780010536,136.54526120005175,136.54531410010532,136.58761780010536,136.58761780010536,136.58761780010536,137.84686290007085,100,1,[1.298856700072065],[1.2988742999732494],754882,001,2024-11-14_20h38.51.146,intentional_binding_exp,2024.1.5,None,2024-11-14 20h38.58.927232 +0530,
0.7,1000,exp,2,7,31,11,137.87147340015508,,137.8491582002025,137.87147340015508,138.8571407001,138.8571407001,138.87394140008837,139.194752600044,space,0.32249909988604486,None,139.19526180019602,139.90797936666448,140.25752440001816,140.21448540012352,140.21453880006447,140.25752440001816,140.25752440001816,140.25752440001816,141.56789460009895,400,1,[1.3506947001442313],[1.3507167000789195],754882,001,2024-11-14_20h38.51.146,intentional_binding_exp,2024.1.5,None,2024-11-14 20h38.58.927232 +0530,
0.1,1000,exp,2,8,32,6,141.59229689999484,,141.57006060006097,141.59229689999484,142.57734660012648,142.57734660012648,142.59472400019877,143.09914820012636,space,0.5065764000173658,None,143.09969340008684,143.21165246685658,143.56215460016392,143.5211957001593,143.52124490006827,143.56215460016392,143.56215460016392,143.56215460016392,145.12154020019807,400,1,[1.5974624999798834],[1.5974882999435067],754882,001,2024-11-14_20h38.51.146,intentional_binding_exp,2024.1.5,None,2024-11-14 20h38.58.927232 +0530,
0.4,1000,exp,2,9,33,4,145.14617449999787,,145.1238293000497,145.14617449999787,146.13140440010466,146.13140440010466,146.14811660000123,146.4718669001013,space,0.3379460000433028,None,146.47306160000153,146.88221556676243,147.23198370006867,147.19051380013116,147.19055990013294,147.23198370006867,147.23198370006867,147.23198370006867,148.70935760019347,400,1,[1.5160604000557214],[1.5160783999599516],754882,001,2024-11-14_20h38.51.146,intentional_binding_exp,2024.1.5,None,2024-11-14 20h38.58.927232 +0530,
0.1,1000,exp,2,10,34,9,148.73370010009967,,148.71155210002325,148.73370010009967,149.7347709001042,149.7347709001042,149.75248520006426,150.2423521000892,space,0.5035063999239355,None,150.24310630001128,150.3532393668468,150.6854693000205,150.65721600013785,150.6572764001321,150.6854693000205,150.6854693000205,150.6854693000205,152.29620840004645,400,1,[1.6362737000454217],[1.636289400048554],754882,001,2024-11-14_20h38.51.146,intentional_binding_exp,2024.1.5,None,2024-11-14 20h38.58.927232 +0530,
0.7,1000,exp,2,11,35,8,152.32104480010457,,152.29821970011108,152.32104480010457,153.30621569999494,153.30621569999494,153.32285220013,154.0810003001243,space,0.7663062000647187,None,154.0814678000752,154.7910322668652,155.1238133001607,155.09437860012986,155.09442310011946,155.1238133001607,155.1238133001607,155.1238133001607,156.60044110007584,400,1,[1.5033715998288244],[1.5033876998350024],754882,001,2024-11-14_20h38.51.146,intentional_binding_exp,2024.1.5,None,2024-11-14 20h38.58.927232 +0530,
0.4,1000,exp,3,0,36,10,156.62589980009943,,156.60255960002542,156.62589980009943,157.61107780016027,157.61107780016027,157.62729950016364,158.15361660020426,space,0.5376281999051571,None,158.15463030012324,158.5617952668729,158.91218000021763,158.87036720011383,158.87041970016435,158.91218000021763,158.91218000021763,158.91218000021763,160.65567240002565,400,1,[1.7826068000867963],[1.7826231000944972],754882,001,2024-11-14_20h38.51.146,intentional_binding_exp,2024.1.5,None,2024-11-14 20h38.58.927232 +0530,
0.1,400,unexp,3,1,37,0,160.6799789001234,,160.65773470001295,160.6799789001234,161.66530310013331,161.66530310013331,161.68190830014646,162.19139789999463,space,0.5165015999227762,None,162.19248470012099,162.29912336665828,162.63194039999507,162.60389120015316,162.6039361001458,162.63194039999507,162.63194039999507,162.63194039999507,165.76169460010715,400,1,[3.1549744000658393],[3.1549919000826776],754882,001,2024-11-14_20h38.51.146,intentional_binding_exp,2024.1.5,None,2024-11-14 20h38.58.927232 +0530,
0.1,1000,exp,3,2,38,9,165.7856044000946,,165.76386120007373,165.7856044000946,166.7705840000417,166.7705840000417,166.78737220005132,167.09670450002886,space,0.3093830000143498,None,167.09779460006393,167.2045120667356,167.53726730006747,167.51054890011437,167.51060380018316,167.53726730006747,167.53726730006747,167.53726730006747,168.91465770010836,100,1,[1.4012310998514295],[1.4012492999900132],754882,001,2024-11-14_20h38.51.146,intentional_binding_exp,2024.1.5,None,2024-11-14 20h38.58.927232 +0530,
0.7,1000,exp,3,3,39,11,168.93886660016142,,168.91765150008723,168.93886660016142,169.94004710018635,169.94004710018635,169.9577622001525,170.5194467001129,space,0.56102339993231,None,170.52084010001272,171.225560466821,171.57531430013478,171.53176790010184,171.5318182001356,171.57531430013478,171.57531430013478,171.57531430013478,173.36750160017982,700,1,[1.8331305000465363],[1.8331441001500934],754882,001,2024-11-14_20h38.51.146,intentional_binding_exp,2024.1.5,None,2024-11-14 20h38.58.927232 +0530,
0.1,1000,exp,3,4,40,6,173.37793510011397,,173.3692620000802,173.37793510011397,174.37946760002524,174.37946760002524,174.37946760002524,174.83853110019118,space,0.45577609981410205,None,174.83989050006494,174.94647226675104,175.29696260020137,175.2545117000118,175.25456460006535,175.29696260020137,175.29696260020137,175.29696260020137,177.62355060013942,100,1,[2.366480000084266],[2.366492700064555],754882,001,2024-11-14_20h38.51.146,intentional_binding_exp,2024.1.5,None,2024-11-14 20h38.58.927232 +0530,
0.7,1000,exp,3,5,41,5,177.63230090006255,,177.62514940020628,177.63230090006255,178.63356960006058,178.63356960006058,178.63356960006058,179.09364900016226,space,0.44170879991725087,None,179.0950403001625,179.8018270668729,180.1515885000117,180.10777100012638,180.10782430018298,180.1515885000117,180.1515885000117,180.1515885000117,182.529397000093,400,1,[2.418779799947515],[2.4187976999673992],754882,001,2024-11-14_20h38.51.146,intentional_binding_exp,2024.1.5,None,2024-11-14 20h38.58.927232 +0530,
0.4,1000,exp,3,6,42,4,182.55414710007608,,182.53171900007874,182.55414710007608,183.5389342000708,183.5389342000708,183.55556110013276,184.0463022000622,space,0.4955343999899924,None,184.04713020008057,184.45658126665901,184.78970050020143,184.75850270013325,184.75855700019747,184.78970050020143,184.78970050020143,184.78970050020143,188.28234520019032,400,1,[3.5213742998894304],[3.5213858999777585],754882,001,2024-11-14_20h38.51.146,intentional_binding_exp,2024.1.5,None,2024-11-14 20h38.58.927232 +0530,
0.7,400,unexp,3,7,43,2,188.29425760009326,,188.2835080001969,188.29425760009326,189.29523360007443,189.29523360007443,189.29523360007443,189.91857720003463,space,0.621850399998948,None,189.91922010015696,190.63032826671068,190.96304620010778,190.93450330011547,190.93454790022224,190.96304620010778,190.96304620010778,190.96304620010778,192.55809040018357,700,1,[1.6205994000192732],[1.6206215999554843],754882,001,2024-11-14_20h38.51.146,intentional_binding_exp,2024.1.5,None,2024-11-14 20h38.58.927232 +0530,
0.1,1000,exp,3,8,44,3,192.58142520021647,,192.5602403001394,192.58142520021647,193.56657350016758,193.56657350016758,193.5834087000694,194.14375320007093,space,0.574696599971503,None,194.1448679000605,194.25114986679208,194.60156710003503,194.56116750021465,194.5612206000369,194.60156710003503,194.60156710003503,194.60156710003503,196.5957324001938,100,1,[2.031589400023222],[2.031607599928975],754882,001,2024-11-14_20h38.51.146,intentional_binding_exp,2024.1.5,None,2024-11-14 20h38.58.927232 +0530,
0.4,1000,exp,3,9,45,7,196.61918950011022,,196.59818130009808,196.61918950011022,197.6045500000473,197.6045500000473,197.62115580006503,197.96268510003574,space,0.35378320002928376,None,197.96376660000533,198.3718823667771,198.70453050010838,198.67844859999605,198.67849350022152,198.70453050010838,198.70453050010838,198.70453050010838,201.51646370021626,400,1,[2.835333100054413],[2.835349100176245],754882,001,2024-11-14_20h38.51.146,intentional_binding_exp,2024.1.5,None,2024-11-14 20h38.58.927232 +0530,
0.7,1000,exp,3,10,46,8,201.54130790010095,,201.518697099993,201.54130790010095,202.5426855001133,202.5426855001133,202.55997240007855,203.08547860011458,space,0.5367670000996441,None,203.086308500031,203.79475446680252,204.12752149999142,204.09709709999152,204.097143500112,204.12752149999142,204.12752149999142,204.12752149999142,205.53856040001847,700,1,[1.4386803000234067],[1.4386983001604676],754882,001,2024-11-14_20h38.51.146,intentional_binding_exp,2024.1.5,None,2024-11-14 20h38.58.927232 +0530,
0.4,400,unexp,3,11,47,1,205.56230740016326,,205.54095610021614,205.56230740016326,206.54783240007237,206.54783240007237,206.5646619000472,207.1062049001921,space,0.5293185000773519,None,207.10729200020432,207.51537236670654,207.84818700002506,207.819697300205,207.81974220019765,207.84818700002506,207.84818700002506,207.84818700002506,209.6924026000779,400,1,[1.869920200202614],[1.8699371002148837],754882,001,2024-11-14_20h38.51.146,intentional_binding_exp,2024.1.5,None,2024-11-14 20h38.58.927232 +0530,
0.1,1000,exp,4,0,48,3,209.71728510013781,,209.69469410018064,209.71728510013781,210.70230400003493,210.70230400003493,210.71901810006239,211.1931325001642,space,0.4761547001544386,None,211.19393940013833,211.30271406687487,211.63555200002156,211.60643560020253,211.60648100008257,211.63555200002156,211.63555200002156,211.63555200002156,216.3497093000915,40,1,[4.740559600060806],[4.740576600190252],754882,001,2024-11-14_20h38.51.146,intentional_binding_exp,2024.1.5,None,2024-11-14 20h38.58.927232 +0530,
0.7,1000,exp,4,1,49,5,216.3740772001911,,216.35178200015798,216.3740772001911,217.35948480013758,217.35948480013758,217.37610390014015,218.58727890020236,space,1.2118013999424875,None,218.58852860005572,219.29500756675068,219.644949400099,219.606387300184,219.60644570016302,219.644949400099,219.644949400099,219.644949400099,221.85606900020503,700,1,[2.2467850998509675],[2.24680219986476],754882,001,2024-11-14_20h38.51.146,intentional_binding_exp,2024.1.5,None,2024-11-14 20h38.58.927232 +0530,
0.4,1000,exp,4,2,50,10,221.8799725000281,,221.85828520008363,221.8799725000281,222.86556390020996,222.86556390020996,222.88206500001252,223.33739380002953,space,0.45928820013068616,None,223.33798620011657,223.7496600668567,224.0823363000527,224.05448850011453,224.05453340010718,224.0823363000527,224.0823363000527,224.0823363000527,225.94452100014314,400,1,[1.8870445000939071],[1.8870667000301182],754882,001,2024-11-14_20h38.51.146,intentional_binding_exp,2024.1.5,None,2024-11-14 20h38.58.927232 +0530,
0.7,400,unexp,4,3,51,2,225.96803860017098,,225.94667320000008,225.96803860017098,226.9694716001395,226.9694716001395,226.98676550015807,227.6115010001231,space,0.6327716000378132,None,227.61239350005053,228.3214555667403,228.67227360000834,228.63046120014042,228.63051410019398,228.67227360000834,228.67227360000834,228.67227360000834,230.29735780018382,700,1,[1.6639857001136988],[1.6640006999950856],754882,001,2024-11-14_20h38.51.146,intentional_binding_exp,2024.1.5,None,2024-11-14 20h38.58.927232 +0530,
0.7,1000,exp,4,4,52,8,230.3067731000483,,230.2991094000172,230.3067731000483,231.30791120021604,231.30791120021604,231.30791120021604,231.8841934001539,space,0.5585443000309169,None,231.88527980004437,232.59266256686922,232.9258641002234,232.8970580000896,232.89710290008225,232.9258641002234,232.9258641002234,232.9258641002234,234.48637480009347,700,1,[1.58643879997544],[1.5864563998766243],754882,001,2024-11-14_20h38.51.146,intentional_binding_exp,2024.1.5,None,2024-11-14 20h38.58.927232 +0530,
0.1,400,unexp,4,5,53,0,234.5108223001007,,234.4886373002082,234.5108223001007,235.5117325000465,235.5117325000465,235.52969760005362,236.08515810011886,space,0.557715600123629,None,236.08587060007267,236.19659246673498,236.54666250012815,236.502362200059,236.50240730005316,236.54666250012815,236.54666250012815,236.54666250012815,238.75736899999902,400,1,[2.252328500151634],[2.2523445999249816],754882,001,2024-11-14_20h38.51.146,intentional_binding_exp,2024.1.5,None,2024-11-14 20h38.58.927232 +0530,
0.1,1000,exp,4,6,54,6,238.7821188000962,,238.7593946000561,238.7821188000962,239.7673122000415,239.7673122000415,239.78387990011834,240.32374990009703,space,0.5499384999275208,None,240.32444240013137,240.43464196665835,240.767348700203,240.73847800004296,240.73853090009652,240.767348700203,240.767348700203,240.767348700203,242.5952791001182,100,1,[1.854019100079313],[1.8540340999606997],754882,001,2024-11-14_20h38.51.146,intentional_binding_exp,2024.1.5,None,2024-11-14 20h38.58.927232 +0530,
0.4,1000,exp,4,7,55,4,242.61946040019393,,242.59724670019932,242.61946040019393,243.60469850013033,243.60469850013033,243.6214537001215,244.07704290002584,space,0.46104780002497137,None,244.07769440021366,244.4890695666584,244.82175540016033,244.7918695001863,244.7919211999979,244.82175540016033,244.82175540016033,244.82175540016033,249.35015620011836,400,1,[4.555747200036421],[4.555760300019756],754882,001,2024-11-14_20h38.51.146,intentional_binding_exp,2024.1.5,None,2024-11-14 20h38.58.927232 +0530,
0.4,1000,exp,4,8,56,7,249.360921200132,,249.35166850010864,249.360921200132,250.36227760021575,250.36227760021575,250.36227760021575,250.76878860010765,space,0.39847499993629754,None,250.77006290014833,251.17965776689041,251.52957280003466,251.4891175001394,251.4891627000179,251.52957280003466,251.52957280003466,251.52957280003466,254.891707100207,400,1,[3.3997591000515968],[3.399777499958873],754882,001,2024-11-14_20h38.51.146,intentional_binding_exp,2024.1.5,None,2024-11-14 20h38.58.927232 +0530,
0.7,1000,exp,4,9,57,11,254.91640370013192,,254.89404140016995,254.91640370013192,255.90167820011266,255.90167820011266,255.91842400003225,256.30875770002604,space,0.39934629993513227,None,256.30974420020357,257.0201531667883,257.352077400079,257.3237643002067,257.32381630013697,257.352077400079,257.352077400079,257.352077400079,259.29671060014516,700,1,[1.9701532998587936],[1.9701698999851942],754882,001,2024-11-14_20h38.51.146,intentional_binding_exp,2024.1.5,None,2024-11-14 20h38.58.927232 +0530,
0.4,400,unexp,4,10,58,1,259.3215241001453,,259.29873410006985,259.3215241001453,260.323461699998,260.323461699998,260.323461699998,260.4991879002191,space,0.1681985999457538,None,260.5002621000167,260.90738766669915,261.2577814999968,261.2172044001054,261.21725960006006,261.2577814999968,261.2577814999968,261.2577814999968,263.23074160004035,400,1,[2.0107978000305593],[2.010805399855599],754882,001,2024-11-14_20h38.51.146,intentional_binding_exp,2024.1.5,None,2024-11-14 20h38.58.927232 +0530,
0.1,1000,exp,4,11,59,9,263.24308930011466,,263.2326778001152,263.24308930011466,264.24389840010554,264.24389840010554,264.24389840010554,264.6998780001886,space,0.4526257999241352,None,264.700519700069,264.81145556673096,265.16096110013314,265.1211323000025,265.1211846000515,265.16096110013314,265.16096110013314,265.16096110013314,266.3889630001504,100,1,[1.2648566998541355],[1.264879599912092],754882,001,2024-11-14_20h38.51.146,intentional_binding_exp,2024.1.5,None,2024-11-14 20h38.58.927232 +0530,
0.7,1000,exp,5,0,60,8,266.4122290001251,,266.3914295001887,266.4122290001251,267.3973907001782,267.3973907001782,267.4142126000952,267.8210537000559,space,0.4127125998493284,None,267.82178170001134,268.5321063667691,268.86510370019823,268.83442830014974,268.83447010000236,268.86510370019823,268.86510370019823,268.86510370019823,270.3069192999974,700,1,[1.4699456000234932],[1.469997800188139],754882,001,2024-11-14_20h38.51.146,intentional_binding_exp,2024.1.5,None,2024-11-14 20h38.58.927232 +0530,
0.7,1000,exp,5,1,61,5,270.3332222001627,,270.30955330003053,270.3332222001627,271.31833979999647,271.31833979999647,271.33503860002384,271.7422937999945,space,0.41700199991464615,None,271.74302240018733,272.4530475668764,272.7857747999951,272.75860050017945,272.75864890008233,272.7857747999951,272.7857747999951,272.7857747999951,275.08101700013503,700,1,[2.319532399997115],[2.3195501998998225],754882,001,2024-11-14_20h38.51.146,intentional_binding_exp,2024.1.5,None,2024-11-14 20h38.58.927232 +0530,
0.1,1000,exp,5,2,62,3,275.10508550005034,,275.0837163000833,275.10508550005034,276.0905278001446,276.0905278001446,276.1069078000728,276.61437630001456,space,0.513414999935776,None,276.6150861000642,276.72476886684694,277.0577387001831,277.02491480018944,277.024950500112,277.0577387001831,277.0577387001831,277.0577387001831,278.5812375000678,400,1,[1.5543506999965757],[1.5543647999875247],754882,001,2024-11-14_20h38.51.146,intentional_binding_exp,2024.1.5,None,2024-11-14 20h38.58.927232 +0530,
0.1,1000,exp,5,3,63,6,278.5930499001406,,278.58283140021376,278.5930499001406,279.5944492002018,279.5944492002018,279.5944492002018,279.88486850005575,space,0.2834317001979798,None,279.8861426000949,279.9944363667785,280.32729410007596,280.2997865001671,280.2998462000396,280.32729410007596,280.32729410007596,280.32729410007596,281.5376454000361,100,1,[1.2349948000628501],[1.2350135000888258],754882,001,2024-11-14_20h38.51.146,intentional_binding_exp,2024.1.5,None,2024-11-14 20h38.58.927232 +0530,
0.4,1000,exp,5,4,64,4,281.5620688002091,,281.54013530001976,281.5620688002091,282.5473523000255,282.5473523000255,282.5639905000571,282.9706952001434,space,0.421794299967587,None,282.97131340019405,283.3820618668726,283.7319525000639,283.6918133001309,283.6918660001829,283.7319525000639,283.7319525000639,283.7319525000639,285.5763602000661,400,1,[1.8816110000479966],[1.8816301999613643],754882,001,2024-11-14_20h38.51.146,intentional_binding_exp,2024.1.5,None,2024-11-14 20h38.58.927232 +0530,
0.1,400,unexp,5,5,65,0,285.60000330000184,,285.57888839999214,285.60000330000184,286.58532660012133,286.58532660012133,286.6018292000517,287.1093582001049,space,0.5175254999194294,None,287.11013990012,287.2190062667398,287.5525031001307,287.5211615001317,287.5212133000605,287.5525031001307,287.5525031001307,287.5525031001307,289.2969956002198,400,1,[1.7730709000024945],[1.7730906000360847],754882,001,2024-11-14_20h38.51.146,intentional_binding_exp,2024.1.5,None,2024-11-14 20h38.58.927232 +0530,
0.4,1000,exp,5,6,66,7,289.32065520016477,,289.2991112000309,289.32065520016477,290.3059959001839,290.3059959001839,290.32274550013244,290.79648170014843,space,0.4834730001166463,None,290.79770620004274,291.2068756668052,291.5396951001603,291.51046230015345,291.51050840015523,291.5396951001603,291.5396951001603,291.5396951001603,293.2344498001039,400,1,[1.7210806999355555],[1.7211007999721915],754882,001,2024-11-14_20h38.51.146,intentional_binding_exp,2024.1.5,None,2024-11-14 20h38.58.927232 +0530,
0.4,1000,exp,5,7,67,10,293.25831230008043,,293.236564300023,293.25831230008043,294.24358940008096,294.24358940008096,294.26007650000975,294.56612030020915,space,0.3123867001850158,None,294.56677800021134,294.9777098668894,295.32742480002344,295.2865796000697,295.2866245000623,295.32742480002344,295.32742480002344,295.32742480002344,296.6212594001554,400,1,[1.331761399982497],[1.3317835999187082],754882,001,2024-11-14_20h38.51.146,intentional_binding_exp,2024.1.5,None,2024-11-14 20h38.58.927232 +0530,
0.7,1000,exp,5,8,68,11,296.6452312001493,,296.6233921002131,296.6452312001493,297.6307081000414,297.6307081000414,297.64727780013345,297.93881090008654,space,0.30486859986558557,None,297.9396354001947,298.64851466688947,298.99886540020816,298.95591270015575,298.9559661000967,298.99886540020816,298.99886540020816,298.99886540020816,300.8419599002227,400,1,[1.8831609999760985],[1.8831788999959826],754882,001,2024-11-14_20h38.51.146,intentional_binding_exp,2024.1.5,None,2024-11-14 20h38.58.927232 +0530,
0.1,1000,exp,5,9,69,9,300.86673460016027,,300.8442044002004,300.86673460016027,301.86881010001525,301.86881010001525,301.86881010001525,302.27777550020255,space,0.3988261998165399,None,302.27891150000505,302.3858493667251,302.7186236002017,302.6891487000976,302.68919640011154,302.7186236002017,302.7186236002017,302.7186236002017,304.34629530017264,400,1,[1.6543787000700831],[1.6543966000899673],754882,001,2024-11-14_20h38.51.146,intentional_binding_exp,2024.1.5,None,2024-11-14 20h38.58.927232 +0530,
0.4,400,unexp,5,10,70,1,304.3708969000727,,304.3486491001677,304.3708969000727,305.35553900012746,305.35553900012746,305.3723556001205,305.8657092000358,space,0.5019923998042941,None,305.867026100168,306.27347746683904,306.6230475001503,306.582539500203,306.5825927001424,306.6230475001503,306.6230475001503,306.6230475001503,308.2175152001437,700,1,[1.6321040000766516],[1.632121799979359],754882,001,2024-11-14_20h38.51.146,intentional_binding_exp,2024.1.5,None,2024-11-14 20h38.58.927232 +0530,
0.7,400,unexp,5,11,71,2,308.24138330016285,,308.21981919999234,308.24138330016285,309.22683460009284,309.22683460009284,309.24308650009334,310.00184820010327,space,0.7734604000579566,None,310.00286890007555,310.71150336676897,311.06229710020125,311.01966880005784,311.0197130001616,311.06229710020125,311.06229710020125,311.06229710020125,312.2219163000118,700,1,[1.1993911999743432],[1.1994088001083583],754882,001,2024-11-14_20h38.51.146,intentional_binding_exp,2024.1.5,None,2024-11-14 20h38.58.927232 +0530,
0.7,1000,exp,6,0,72,5,312.24602070008405,,312.224226700142,312.24602070008405,313.2469007000327,313.2469007000327,313.26443530013785,313.67182290018536,space,0.41571950004436076,None,313.67323990003206,314.3822217668096,314.7149087002035,314.68898760015145,314.6890454001259,314.7149087002035,314.7149087002035,314.7149087002035,316.67816610005684,700,1,[1.986183000029996],[1.9862054998520762],754882,001,2024-11-14_20h38.51.146,intentional_binding_exp,2024.1.5,None,2024-11-14 20h38.58.927232 +0530,
0.7,1000,exp,6,1,73,8,316.7004891000688,,316.68056890019216,316.7004891000688,317.6857261999976,317.6857261999976,317.7029090002179,317.7762152000796,space,0.07387970015406609,None,317.78076010011137,318.486859566827,318.83680650009774,318.7957019000314,318.79575410019606,318.83680650009774,318.83680650009774,318.83680650009774,320.71477399999276,700,1,[1.9162701000459492],[1.9162870000582188],754882,001,2024-11-14_20h38.51.146,intentional_binding_exp,2024.1.5,None,2024-11-14 20h38.58.927232 +0530,
0.4,400,unexp,6,2,74,1,320.73831710009836,,320.71687100012787,320.73831710009836,321.7236433001235,321.7236433001235,321.7401812002063,322.1313502001576,space,0.3751499999780208,None,322.13248260016553,322.5411925668052,322.8917756001465,322.8491919999942,322.8492444001604,322.8917756001465,322.8917756001465,322.8917756001465,324.6148702001665,400,1,[1.7632494999561459],[1.7632592997979373],754882,001,2024-11-14_20h38.51.146,intentional_binding_exp,2024.1.5,None,2024-11-14 20h38.58.927232 +0530,
0.1,1000,exp,6,3,75,6,324.6265547000803,,324.6180962000508,324.6265547000803,325.6606857001316,325.6606857001316,325.6606857001316,326.5330596000422,space,0.8668459998443723,None,326.53360920003615,326.6456825668613,326.97872870019637,326.94510150002316,326.9451457001269,326.97872870019637,326.97872870019637,326.97872870019637,329.3895496001933,100,1,[2.4415899999439716],[2.4416078999638557],754882,001,2024-11-14_20h38.51.146,intentional_binding_exp,2024.1.5,None,2024-11-14 20h38.58.927232 +0530,
0.1,1000,exp,6,4,76,3,329.414539600024,,329.39178679999895,329.414539600024,330.3997755001765,330.3997755001765,330.4164231000468,331.0077288001776,space,0.576397700002417,None,331.00895910011604,331.1173503667271,331.46712250006385,331.4251776000019,331.42522960016504,331.46712250006385,331.46712250006385,331.46712250006385,332.777660000138,100,1,[1.3496014000847936],[1.349620500113815],754882,001,2024-11-14_20h38.51.146,intentional_binding_exp,2024.1.5,None,2024-11-14 20h38.58.927232 +0530,
0.1,1000,exp,6,5,77,9,332.8016519001685,,332.7802875000052,332.8016519001685,333.78675350011326,333.78675350011326,333.8041157000698,334.89438420021906,space,1.0891928998753428,None,334.89570790017024,335.00491046678894,335.33752190019004,335.3077110000886,335.30774990003556,335.33752190019004,335.33752190019004,335.33752190019004,336.78065349999815,100,1,[1.4705805000849068],[1.4705980999860913],754882,001,2024-11-14_20h38.51.146,intentional_binding_exp,2024.1.5,None,2024-11-14 20h38.58.927232 +0530,
0.4,1000,exp,6,6,78,10,336.8061056002043,,336.7830826002173,336.8061056002043,337.7913631000556,337.7913631000556,337.80791060021147,338.54793980019167,space,0.7469521998427808,None,338.5486748002004,338.9591322667586,339.29204319999553,339.2649682001211,339.2650088001974,339.29204319999553,339.29204319999553,339.29204319999553,340.63561960007064,400,1,[1.3682546000927687],[1.3682725001126528],754882,001,2024-11-14_20h38.51.146,intentional_binding_exp,2024.1.5,None,2024-11-14 20h38.58.927232 +0530,
0.7,1000,exp,6,7,79,11,340.66022780002095,,340.63791610021144,340.66022780002095,341.6453182999976,341.6453182999976,341.66200630017556,341.9205835000612,space,0.2713438000064343,None,341.92217640019953,342.62995166686983,342.9627285001334,342.9345259000547,342.93457090016454,342.9627285001334,342.9627285001334,342.9627285001334,344.8564548001159,700,1,[1.9190803000237793],[1.9190986999310553],754882,001,2024-11-14_20h38.51.146,intentional_binding_exp,2024.1.5,None,2024-11-14 20h38.58.927232 +0530,
0.4,1000,exp,6,8,80,4,344.8813272002153,,344.85891490010545,344.8813272002153,345.866791700013,345.866791700013,345.88390450016595,346.3586837002076,space,0.485086299944669,None,346.359625000041,346.76798956684456,347.118304700125,347.0731674002018,347.0732113001868,347.118304700125,347.118304700125,347.118304700125,348.82940170005895,400,1,[1.7533364000264555],[1.7533586998470128],754882,001,2024-11-14_20h38.51.146,intentional_binding_exp,2024.1.5,None,2024-11-14 20h38.58.927232 +0530,
0.4,1000,exp,6,9,81,7,348.85260020010173,,348.8320906001609,348.85260020010173,349.837888300186,349.837888300186,349.85439210012555,350.3284741002135,space,0.48488350003026426,None,350.3293214000296,350.7389390667124,351.07160320016555,351.0410444000736,351.0410853000358,351.07160320016555,351.07160320016555,351.07160320016555,352.7820459001232,400,1,[1.7386822998523712],[1.7387035998981446],754882,001,2024-11-14_20h38.51.146,intentional_binding_exp,2024.1.5,None,2024-11-14 20h38.58.927232 +0530,
0.1,400,unexp,6,10,82,0,352.8068886999972,,352.784839700209,352.8068886999972,353.7918452001177,353.7918452001177,353.80867330008186,354.281411500182,space,0.4809264000505209,None,354.28213780000806,354.3926512667133,354.7252787000034,354.6997357001528,354.6997909001075,354.7252787000034,354.7252787000034,354.7252787000034,356.9375862001907,700,1,[2.23233800008893],[2.2323529000859708],754882,001,2024-11-14_20h38.51.146,intentional_binding_exp,2024.1.5,None,2024-11-14 20h38.58.927232 +0530,
0.7,400,unexp,6,11,83,2,356.9613956999965,,356.9393807000015,356.9613956999965,357.9465441000648,357.9465441000648,357.9633385001216,358.4042592002079,space,0.4421625998802483,None,358.4054353001993,359.1146071667938,359.46407520002685,359.4251301002223,359.4251745000947,359.46407520002685,359.46407520002685,359.46407520002685,360.9258912000805,700,1,[1.4977879000362009],[1.4978094999678433],754882,001,2024-11-14_20h38.51.146,intentional_binding_exp,2024.1.5,None,2024-11-14 20h38.58.927232 +0530,
0.4,1000,exp,7,0,84,10,360.94898740015924,,360.92853460018523,360.94898740015924,361.9341799002141,361.9341799002141,361.95129019999877,362.6908492001239,space,0.7470205000136048,None,362.691543900175,363.1021098667445,363.4349479000084,363.40524930018,363.4052946001757,363.4349479000084,363.4349479000084,363.4349479000084,364.86219420004636,400,1,[1.4542757999151945],[1.454292800044641],754882,001,2024-11-14_20h38.51.146,intentional_binding_exp,2024.1.5,None,2024-11-14 20h38.58.927232 +0530,
0.4,1000,exp,7,1,85,4,364.8869773000479,,364.8645933000371,364.8869773000479,365.87201910000294,365.87201910000294,365.88857480022125,366.3972542001866,space,0.5185145998839289,None,366.3984580000397,366.80623816681714,367.1570012001321,367.11579910013825,367.1158504001796,367.1570012001321,367.1570012001321,367.1570012001321,371.934509600047,400,1,[4.816124100005254],[4.816135499859229],754882,001,2024-11-14_20h38.51.146,intentional_binding_exp,2024.1.5,None,2024-11-14 20h38.58.927232 +0530,
0.7,400,unexp,7,2,86,2,371.9450608000625,,371.93601970002055,371.9450608000625,372.94726430019364,372.94726430019364,372.94726430019364,373.3882269000169,space,0.4360587000846863,None,373.3890321000945,374.09755726677054,374.43018470006064,374.40110800019465,374.4011521001812,374.43018470006064,374.43018470006064,374.43018470006064,375.8253427001182,700,1,[1.421430699992925],[1.4214482000097632],754882,001,2024-11-14_20h38.51.146,intentional_binding_exp,2024.1.5,None,2024-11-14 20h38.58.927232 +0530,
0.7,1000,exp,7,3,87,5,375.84857930010185,,375.82758520008065,375.84857930010185,376.8332475000061,376.8332475000061,376.8506035001483,377.20704750018194,space,0.3569986999500543,None,377.20782040013,377.9184889668288,378.25139160011895,378.21968470001593,378.21972630009986,378.25139160011895,378.25139160011895,378.25139160011895,380.16216370020993,400,1,[1.9401362999342382],[1.940150799928233],754882,001,2024-11-14_20h38.51.146,intentional_binding_exp,2024.1.5,None,2024-11-14 20h38.58.927232 +0530,
0.1,1000,exp,7,4,88,9,380.18725750013255,,380.163896900136,380.18725750013255,381.1718794000335,381.1718794000335,381.1886976000387,381.5131136002019,space,0.32873549987562,None,381.5142359000165,381.6225725666775,381.97261500009336,381.9318305000197,381.9318981000688,381.97261500009336,381.97261500009336,381.97261500009336,383.1989510001149,100,1,[1.264305300079286],[1.2643230000976473],754882,001,2024-11-14_20h38.51.146,intentional_binding_exp,2024.1.5,None,2024-11-14 20h38.58.927232 +0530,
0.7,1000,exp,7,5,89,8,383.22346990020014,,383.20113860000856,383.22346990020014,384.20848030014895,384.20848030014895,384.22529470012523,384.53530880017206,space,0.31373279984109104,None,384.5364489001222,385.24320906686285,385.5758350000251,385.54779650014825,385.54785060021095,385.5758350000251,385.5758350000251,385.5758350000251,387.1530486000702,700,1,[1.6024313000962138],[1.6024488001130521],754882,001,2024-11-14_20h38.51.146,intentional_binding_exp,2024.1.5,None,2024-11-14 20h38.58.927232 +0530,
0.4,1000,exp,7,6,90,7,387.1776958000846,,387.1553313001059,387.1776958000846,388.1630364002194,388.1630364002194,388.1797235000413,388.52221160009503,space,0.34437659988179803,None,388.52331660012715,388.9308242668087,389.2813118000049,389.2384205001872,389.23847130010836,389.2813118000049,389.2813118000049,389.2813118000049,390.8571287000086,400,1,[1.615884899860248],[1.6159175999928266],754882,001,2024-11-14_20h38.51.146,intentional_binding_exp,2024.1.5,None,2024-11-14 20h38.58.927232 +0530,
0.4,400,unexp,7,7,91,1,390.88183010020293,,390.8594827000052,390.88183010020293,391.8670993000269,391.8670993000269,391.8836298000533,392.35782020003535,space,0.4881182999815792,None,392.35864760004915,392.7682638667213,393.10070730000734,393.07824960001744,393.07828430016525,393.10070730000734,393.10070730000734,393.10070730000734,395.07909070001915,400,1,[1.9984923999290913],[1.9985098000615835],754882,001,2024-11-14_20h38.51.146,intentional_binding_exp,2024.1.5,None,2024-11-14 20h38.58.927232 +0530,
0.1,400,unexp,7,8,92,0,395.10321280010976,,395.08120820019394,395.10321280010976,396.088367999997,396.088367999997,396.1053814000916,396.763403700199,space,0.6668630000203848,None,396.7649827999994,396.8725481667245,397.20540820015594,397.1744913000148,397.174541400047,397.20540820015594,397.20540820015594,397.20540820015594,399.3465778999962,400,1,[2.1695182998664677],[2.1695307998452336],754882,001,2024-11-14_20h38.51.146,intentional_binding_exp,2024.1.5,None,2024-11-14 20h38.58.927232 +0530,
0.7,1000,exp,7,9,93,11,399.3584165000357,,399.34812710015103,399.3584165000357,400.3596167000942,400.3596167000942,400.3596167000942,400.7003851002082,space,0.3291919999755919,None,400.7012232001871,401.4110394667989,401.74365020007826,401.71840540017,401.7184505001642,401.74365020007826,401.74365020007826,401.74365020007826,403.085863500135,700,1,[1.3647553999908268],[1.3647698999848217],754882,001,2024-11-14_20h38.51.146,intentional_binding_exp,2024.1.5,None,2024-11-14 20h38.58.927232 +0530,
0.1,1000,exp,7,10,94,6,403.0959800002165,,403.0876783002168,403.0959800002165,404.0972030002158,404.0972030002158,404.0972030002158,404.6705085001886,space,0.5581501999404281,None,404.67124050017446,404.78131036676155,405.130738100037,405.08911140006967,405.0891555000562,405.130738100037,405.130738100037,405.130738100037,406.809039800195,100,1,[1.716934199910611],[1.7169561998452991],754882,001,2024-11-14_20h38.51.146,intentional_binding_exp,2024.1.5,None,2024-11-14 20h38.58.927232 +0530,
0.1,1000,exp,7,11,95,3,406.8326026001014,,406.81168290018104,406.8326026001014,407.81760900001973,407.81760900001973,407.83481810009107,408.1587569001131,space,0.33890159986913204,None,408.1594927001279,408.2690000667392,408.6192346001044,408.57712750020437,408.57717820000835,408.6192346001044,408.6192346001044,408.6192346001044,409.7475439000409,100,1,[1.1671326998621225],[1.1671646998729557],754882,001,2024-11-14_20h38.51.146,intentional_binding_exp,2024.1.5,None,2024-11-14 20h38.58.927232 +0530,
0.1,1000,exp,8,0,96,6,409.76925170002505,,409.75090360012837,409.76925170002505,410.75424850010313,410.75424850010313,410.770970800193,411.0791731001809,space,0.3068806999363005,None,411.0800182002131,411.18817976682135,411.5209561001975,411.49070000019856,411.4907513000071,411.5209561001975,411.5209561001975,411.5209561001975,412.6477340001147,100,1,[1.1540389000438154],[1.1540572999510914],754882,001,2024-11-14_20h38.51.146,intentional_binding_exp,2024.1.5,None,2024-11-14 20h38.58.927232 +0530,
0.1,400,unexp,8,1,97,0,412.6724448001478,,412.65006040013395,412.6724448001478,413.6576006000396,413.6576006000396,413.67444690014236,414.05044450005516,space,0.39038260001689196,None,414.05141220008954,414.15811206686,414.5081474001054,414.4650534000248,414.46509870002046,414.5081474001054,414.5081474001054,414.5081474001054,417.17123850015923,100,1,[2.7014413999859244],[2.7014591998886317],754882,001,2024-11-14_20h38.51.146,intentional_binding_exp,2024.1.5,None,2024-11-14 20h38.58.927232 +0530,
0.4,1000,exp,8,2,98,7,417.1937738000415,,417.17365210014395,417.1937738000415,418.1791628000792,418.1791628000792,418.1958665000275,418.8560235002078,space,0.6633511998225003,None,418.8571407001,419.26365306676985,419.59655710007064,419.5651908,419.56524130003527,419.59655710007064,419.59655710007064,419.59655710007064,420.8412111001089,400,1,[1.2730698001105338],[1.2730930000543594],754882,001,2024-11-14_20h38.51.146,intentional_binding_exp,2024.1.5,None,2024-11-14 20h38.58.927232 +0530,
0.4,400,unexp,8,3,99,1,420.8648065000307,,420.84393380000256,420.8648065000307,421.84982110001147,421.84982110001147,421.8671348001808,422.2394220000133,space,0.3803461999632418,None,422.2400657001417,422.65088206675523,422.9834077002015,422.9559288001619,422.95598230022006,422.9834077002015,422.9834077002015,422.9834077002015,424.67834260012023,400,1,[1.7195361000485718],[1.7195536000654101],754882,001,2024-11-14_20h38.51.146,intentional_binding_exp,2024.1.5,None,2024-11-14 20h38.58.927232 +0530,
0.7,400,unexp,8,4,100,2,424.7021320001222,,424.68055900000036,424.7021320001222,425.68742249999195,425.68742249999195,425.7039110001642,426.128351100022,space,0.4331497000530362,None,426.1293220000807,426.8385386667835,427.18894310016185,427.14790880004875,427.1479609000962,427.18894310016185,427.18894310016185,427.18894310016185,428.61553569999523,700,1,[1.4646441000513732],[1.4646636000834405],754882,001,2024-11-14_20h38.51.146,intentional_binding_exp,2024.1.5,None,2024-11-14 20h38.58.927232 +0530,
0.7,1000,exp,8,5,101,11,428.6398403001949,,428.618183700135,428.6398403001949,429.62488450016826,429.62488450016826,429.6416889000684,429.9853171000723,space,0.3514563001226634,None,429.98666510009207,430.6929684668469,431.0254705999978,430.9985145002138,430.9985647001304,431.0254705999978,431.0254705999978,431.0254705999978,432.81609000009485,700,1,[1.81519929994829],[1.8152083000168204],754882,001,2024-11-14_20h38.51.146,intentional_binding_exp,2024.1.5,None,2024-11-14 20h38.58.927232 +0530,
0.1,1000,exp,8,6,102,3,432.82860360015184,,432.81730450014584,432.82860360015184,433.8297423000913,433.8297423000913,433.8297423000913,434.1689007000532,space,0.33349640015512705,None,434.16959600010887,434.28019776667156,434.61313730012625,434.58241540007293,434.58246450009756,434.61313730012625,434.61313730012625,434.61313730012625,435.8561195000075,100,1,[1.2710322998464108],[1.271047999849543],754882,001,2024-11-14_20h38.51.146,intentional_binding_exp,2024.1.5,None,2024-11-14 20h38.58.927232 +0530,
0.1,1000,exp,8,7,103,9,435.86491940007545,,435.8577190001961,435.86491940007545,436.8662756001577,436.8662756001577,436.8662756001577,437.4069486001972,space,0.5235619999002665,None,437.4078757001553,437.51702926686653,437.86669690022245,437.825141500216,437.8251955001615,437.86669690022245,437.86669690022245,437.86669690022245,439.1267653000541,100,1,[1.2987112998962402],[1.298733799951151],754882,001,2024-11-14_20h38.51.146,intentional_binding_exp,2024.1.5,None,2024-11-14 20h38.58.927232 +0530,
0.4,1000,exp,8,8,104,10,439.15139740007,,439.12889420008287,439.15139740007,440.1366446001921,440.1366446001921,440.15333430003375,440.74485150002874,space,0.5762517000548542,None,440.74599300022237,441.15436346672163,441.50504479999654,441.4624035002198,441.4624469000846,441.50504479999654,441.50504479999654,441.50504479999654,442.66108990018256,400,1,[1.1962009000126272],[1.196213899878785],754882,001,2024-11-14_20h38.51.146,intentional_binding_exp,2024.1.5,None,2024-11-14 20h38.58.927232 +0530,
0.4,1000,exp,8,9,105,4,442.6725829001516,,442.6627855000552,442.6725829001516,443.6739441000391,443.6739441000391,443.6739441000391,444.16425330005586,space,0.47850890015251935,None,444.16504290001467,444.5748209667547,444.9073667000048,444.8773909001611,444.8774411000777,444.9073667000048,444.9073667000048,444.9073667000048,446.61349070002325,400,1,[1.7338260998949409],[1.7338330000638962],754882,001,2024-11-14_20h38.51.146,intentional_binding_exp,2024.1.5,None,2024-11-14 20h38.58.927232 +0530,
0.7,1000,exp,8,10,106,8,446.6269812001847,,446.6144358001184,446.6269812001847,447.6280129000079,447.6280129000079,447.6280129000079,447.87096820003353,space,0.24042130005545914,None,447.87195010017604,448.57914216682934,448.9117996999994,448.8864934002049,448.8865379001945,448.9117996999994,448.9117996999994,448.9117996999994,450.372226000065,700,1,[1.48293810011819],[1.4829563000239432],754882,001,2024-11-14_20h38.51.146,intentional_binding_exp,2024.1.5,None,2024-11-14 20h38.58.927232 +0530,
0.7,1000,exp,8,11,107,5,450.39725140016526,,450.37459420016967,450.39725140016526,451.38242120016366,451.38242120016366,451.39892609999515,452.04130090004764,space,0.6440161999780685,None,452.04239220009185,452.75057526684054,453.09993580006994,453.05729950009845,453.05735360016115,453.09993580006994,453.09993580006994,453.09993580006994,454.3111257001292,700,1,[1.2508654000703245],[1.2508878000080585],754882,001,2024-11-14_20h38.51.146,intentional_binding_exp,2024.1.5,None,2024-11-14 20h38.58.927232 +0530,
0.1,1000,exp,9,0,108,9,454.3344613001682,,454.31385120004416,454.3344613001682,455.31974560022354,455.31974560022354,455.3364121001214,455.6259529001545,space,0.29827640019357204,None,455.62722160015255,455.7368974667663,456.0695514001418,456.0440996000543,456.04415160021745,456.0695514001418,456.0695514001418,456.0695514001418,457.31340100010857,100,1,[1.2663348000496626],[1.2663606000132859],754882,001,2024-11-14_20h38.51.146,intentional_binding_exp,2024.1.5,None,2024-11-14 20h38.58.927232 +0530,
0.4,1000,exp,9,1,109,7,457.33773090015166,,457.3157243002206,457.33773090015166,458.3231208000798,458.3231208000798,458.3396808002144,459.2168266000226,space,0.8885600999929011,None,459.2178308002185,459.62463786668764,459.95729400007986,459.92639120016247,459.9264428000897,459.95729400007986,459.95729400007986,459.95729400007986,462.6867754000705,400,1,[2.757463299902156],[2.7574846998322755],754882,001,2024-11-14_20h38.51.146,intentional_binding_exp,2024.1.5,None,2024-11-14 20h38.58.927232 +0530,
0.1,1000,exp,9,2,110,6,462.7103305000346,,462.68920590006746,462.7103305000346,463.69562400016,463.69562400016,463.7122659001034,464.1205186001025,space,0.40878260019235313,None,464.1216195002198,464.2295440668861,464.5621370000299,464.5343757001683,464.5344209000468,464.5621370000299,464.5621370000299,464.5621370000299,469.1928696001414,100,1,[4.6557620000094175],[4.655779500026256],754882,001,2024-11-14_20h38.51.146,intentional_binding_exp,2024.1.5,None,2024-11-14 20h38.58.927232 +0530,
0.7,1000,exp,9,3,111,5,469.2174895000644,,469.19524000003,469.2174895000644,470.20306299999356,470.20306299999356,470.2193086000625,470.5794981000945,space,0.36477450001984835,None,470.5809402000159,471.2872682668424,471.63803480006754,471.5957441001665,471.595789300045,471.63803480006754,471.63803480006754,471.63803480006754,473.9119844001252,700,1,[2.313805499812588],[2.3138166998978704],754882,001,2024-11-14_20h38.51.146,intentional_binding_exp,2024.1.5,None,2024-11-14 20h38.58.927232 +0530,
0.7,1000,exp,9,4,112,8,473.92326580011286,,473.91340780002065,473.92326580011286,474.9245485002175,474.9245485002175,474.9245485002175,475.5663302000612,space,0.6334524999838322,None,475.56740820012055,476.2760376667759,476.6086643000599,476.5784873000812,476.57853860012256,476.6086643000599,476.6086643000599,476.6086643000599,477.8521684000734,700,1,[1.2708304000552744],[1.27084910008125],754882,001,2024-11-14_20h38.51.146,intentional_binding_exp,2024.1.5,None,2024-11-14 20h38.58.927232 +0530,
0.7,1000,exp,9,5,113,11,477.87724980013445,,477.8547051001806,477.87724980013445,478.86205870006233,478.86205870006233,478.87865180009976,479.4019075999968,space,0.5318068000487983,None,479.40262540010735,480.11358946684436,480.44630180019885,480.41710870014504,480.4171590001788,480.44630180019885,480.44630180019885,480.44630180019885,482.0408990001306,700,1,[1.6210300999227911],[1.621047900058329],754882,001,2024-11-14_20h38.51.146,intentional_binding_exp,2024.1.5,None,2024-11-14 20h38.58.927232 +0530,
0.4,400,unexp,9,6,114,1,482.06458060001023,,482.04317479999736,482.06458060001023,483.0502428000327,483.0502428000327,483.06683250004426,483.5917009001132,space,0.5302718000020832,None,483.5925426001195,484.00109426683434,484.35097770020366,484.31052990001626,484.3105821001809,484.35097770020366,484.35097770020366,484.35097770020366,485.9777370002121,400,1,[1.6642275999765843],[1.6642456999979913],754882,001,2024-11-14_20h38.51.146,intentional_binding_exp,2024.1.5,None,2024-11-14 20h38.58.927232 +0530,
0.1,1000,exp,9,7,115,3,486.0024113000836,,485.9798605001997,486.0024113000836,486.9876428002026,486.9876428002026,487.0044010002166,487.9294348000549,space,0.9325735999736935,None,487.9301817000378,488.03791536676385,488.37166619999334,488.3424300001934,488.34247290017083,488.37166619999334,488.37166619999334,488.37166619999334,489.6649067001417,100,1,[1.3192693998571485],[1.3192850998602808],754882,001,2024-11-14_20h38.51.146,intentional_binding_exp,2024.1.5,None,2024-11-14 20h38.58.927232 +0530,
0.1,400,unexp,9,8,116,0,489.6898040000815,,489.6669080001302,489.6898040000815,490.6751508000307,490.6751508000307,490.6918661000673,491.08498240006156,space,0.3935096999630332,None,491.0861789002083,491.1926250667932,491.5432332002092,491.4998119000811,491.49986540013924,491.5432332002092,491.5432332002092,491.5432332002092,493.06987720006146,100,1,[1.5670352999586612],[1.5670523999724537],754882,001,2024-11-14_20h38.51.146,intentional_binding_exp,2024.1.5,None,2024-11-14 20h38.58.927232 +0530,
0.4,1000,exp,9,9,117,4,493.09374830010347,,493.0730033,493.09374830010347,494.07885890011676,494.07885890011676,494.0957086000126,494.85270030004904,space,0.7696430999785662,None,494.85340220015496,495.2635113667386,495.59640290006064,495.56529190018773,495.56534200021997,495.59640290006064,495.59640290006064,495.59640290006064,496.85457810014486,400,1,[1.2867782998364419],[1.2867906000465155],754882,001,2024-11-14_20h38.51.146,intentional_binding_exp,2024.1.5,None,2024-11-14 20h38.58.927232 +0530,
0.7,400,unexp,9,10,118,2,496.865059700096,,496.85607840004377,496.865059700096,497.86630260013044,497.86630260013044,497.86630260013044,498.30633190018125,space,0.43765390012413263,None,498.3075017000083,499.0178478668133,499.3671614001505,499.3291454000864,499.32920330017805,499.3671614001505,499.3671614001505,499.3671614001505,501.09415760007687,700,1,[1.762168199988082],[1.7621840999927372],754882,001,2024-11-14_20h38.51.146,intentional_binding_exp,2024.1.5,None,2024-11-14 20h38.58.927232 +0530,
0.4,1000,exp,9,11,119,10,501.1192784002051,,501.0962410001084,501.1192784002051,502.1042426000349,502.1042426000349,502.12089030002244,502.69344980013557,space,0.5815298000816256,None,502.69405550020747,503.10521916678795,503.43823339999653,503.4063328001648,503.40638669999316,503.43823339999653,503.43823339999653,503.43823339999653,505.1337688001804,400,1,[1.7244394000153989],[1.7244563000276685],754882,001,2024-11-14_20h38.51.146,intentional_binding_exp,2024.1.5,None,2024-11-14 20h38.58.927232 +0530,
0.7,1000,exp,10,0,120,5,505.156808400061,,505.135766700143,505.156808400061,506.1420439002104,506.1420439002104,506.15877640014514,506.6475563000422,space,0.49178529996424913,None,506.6482160000596,507.35999816685603,507.69310360006057,507.66157680004835,507.6616282002069,507.69310360006057,507.69310360006057,507.69310360006057,509.283727100119,700,1,[1.6196391999255866],[1.6196506000123918],754882,001,2024-11-14_20h38.51.146,intentional_binding_exp,2024.1.5,None,2024-11-14 20h38.58.927232 +0530,
0.7,1000,exp,10,1,121,8,509.2954088000115,,509.28518930007704,509.2954088000115,510.2966610000003,510.2966610000003,510.2966610000003,511.07364200009033,space,0.7743842999916524,None,511.0751468001399,511.78195276676365,512.1142843000125,512.0864982001949,512.0865518001374,512.1142843000125,512.1142843000125,512.1142843000125,514.1733565002214,400,1,[2.084114999976009],[2.0841298999730498],754882,001,2024-11-14_20h38.51.146,intentional_binding_exp,2024.1.5,None,2024-11-14 20h38.58.927232 +0530,
0.1,1000,exp,10,2,122,6,514.1839590000454,,514.1759691000916,514.1839590000454,515.1853440999985,515.1853440999985,515.1853440999985,515.5406994000077,space,0.34190130000934005,None,515.5413719001226,515.6523215668897,515.9851107001305,515.9584363000467,515.9584898001049,515.9851107001305,515.9851107001305,515.9851107001305,518.0805640001781,100,1,[2.119244399946183],[2.119262099964544],754882,001,2024-11-14_20h38.51.146,intentional_binding_exp,2024.1.5,None,2024-11-14 20h38.58.927232 +0530,
0.1,400,unexp,10,3,123,0,518.1043337001465,,518.082792500034,518.1043337001465,519.0894517002162,519.0894517002162,519.1060975000728,519.396666200133,space,0.301585900131613,None,519.3974590001162,519.5066550668018,519.8395064000506,519.8093160002027,519.8093690001406,519.8395064000506,519.8395064000506,519.8395064000506,521.0803820001893,100,1,[1.2684275000356138],[1.268437199993059],754882,001,2024-11-14_20h38.51.146,intentional_binding_exp,2024.1.5,None,2024-11-14 20h38.58.927232 +0530,
0.4,1000,exp,10,4,124,10,521.0916056002025,,521.0817436000798,521.0916056002025,522.0927711999975,522.0927711999975,522.0927711999975,522.4337176000699,space,0.3281310999300331,None,522.4345908001997,522.8437165667458,523.176286800066,523.1479873000644,523.1480308000464,523.176286800066,523.176286800066,523.176286800066,524.5878119000699,400,1,[1.4369492998812348],[1.4369655998889357],754882,001,2024-11-14_20h38.51.146,intentional_binding_exp,2024.1.5,None,2024-11-14 20h38.58.927232 +0530,
0.4,400,unexp,10,5,125,1,524.6115074001718,,524.5900706001557,524.6115074001718,525.5966470001731,525.5966470001731,525.6132490001619,526.2725485002156,space,0.6589740000199527,None,526.2735154000111,526.6813071668769,527.0141114001162,526.9878344000317,526.9878796001431,527.0141114001162,527.0141114001162,527.0141114001162,529.0249556000344,400,1,[2.0342082001734525],[2.034225800074637],754882,001,2024-11-14_20h38.51.146,intentional_binding_exp,2024.1.5,None,2024-11-14 20h38.58.927232 +0530,
0.1,1000,exp,10,6,126,3,529.0495672000106,,529.027810000116,529.0495672000106,530.0347985001281,530.0347985001281,530.0515861001331,530.6278050001711,space,0.5769783998839557,None,530.6287138001062,530.735703066752,531.0866251001135,531.0412886000704,531.0413323000539,531.0866251001135,531.0866251001135,531.0866251001135,532.248482900206,100,1,[1.2043314001057297],[1.2043502999003977],754882,001,2024-11-14_20h38.51.146,intentional_binding_exp,2024.1.5,None,2024-11-14 20h38.58.927232 +0530,
0.4,1000,exp,10,7,127,7,532.2699401001446,,532.2512853001244,532.2699401001446,533.2550087000709,533.2550087000709,533.2716806000099,533.612547100056,space,0.3499793999362737,None,533.6133871001657,534.0226527667294,534.3554448001087,534.3266860002186,534.326738400152,534.3554448001087,534.3554448001087,534.3554448001087,535.6837901000399,400,1,[1.354086299892515],[1.3541085999459028],754882,001,2024-11-14_20h38.51.146,intentional_binding_exp,2024.1.5,None,2024-11-14 20h38.58.927232 +0530,
0.7,400,unexp,10,8,128,2,535.7068145000376,,535.6869495001156,535.7068145000376,536.6920708001126,536.6920708001126,536.7088940001559,537.0181457002182,space,0.31643830006942153,None,537.0192505000159,537.7263097668222,538.059644700028,538.0277954000048,538.0278422001284,538.059644700028,538.059644700028,538.059644700028,539.3698876001872,40,1,[1.3394623000640422],[1.3394802000839263],754882,001,2024-11-14_20h38.51.146,intentional_binding_exp,2024.1.5,None,2024-11-14 20h38.58.927232 +0530,
0.4,1000,exp,10,9,129,4,539.394104400184,,539.3722183001228,539.394104400184,540.3793893000111,540.3793893000111,540.3960135001689,541.405993900029,space,1.0196088999509811,None,541.407072900096,541.814459766789,542.1645747001749,542.1237785001285,542.1238240001258,542.1645747001749,542.1645747001749,542.1645747001749,543.8760660002008,100,1,[1.749345500022173],[1.7493652000557631],754882,001,2024-11-14_20h38.51.146,intentional_binding_exp,2024.1.5,None,2024-11-14 20h38.58.927232 +0530,
0.1,1000,exp,10,10,130,9,543.8990553000476,,543.8786472000647,543.8990553000476,544.9003570000641,544.9003570000641,544.9181475001387,545.5417674002238,space,0.637675300007686,None,545.5430179000832,545.6525854666872,545.9852528001647,545.9531509000808,545.9531961001921,545.9852528001647,545.9852528001647,545.9852528001647,548.4764726001304,100,1,[2.520868099993095],[2.5208789999596775],754882,001,2024-11-14_20h38.51.146,intentional_binding_exp,2024.1.5,None,2024-11-14 20h38.58.927232 +0530,
0.7,1000,exp,10,11,131,11,548.488700899994,,548.4777180000674,548.488700899994,549.4894411000423,549.4894411000423,549.4894411000423,549.7989152001683,space,0.2999698000494391,None,549.799907800043,550.507297466804,550.8579392000102,550.8171980001498,550.8172433001455,550.8579392000102,550.8579392000102,550.8579392000102,552.2333421001676,400,1,[1.4133198999334127],[1.4133392998483032],754882,001,2024-11-14_20h38.51.146,intentional_binding_exp,2024.1.5,None,2024-11-14 20h38.58.927232 +0530,
0.7,1000,exp,11,0,132,5,552.2582977002021,,552.2355187002104,552.2582977002021,553.2439109000843,553.2439109000843,553.260541100055,553.7340584001504,space,0.4787363999057561,None,553.7348313000984,554.444717666662,554.7947292001918,554.753145800205,554.7531899001915,554.7947292001918,554.7947292001918,554.7947292001918,557.1055390001275,400,1,[2.3496040999889374],[2.349622500129044],754882,001,2024-11-14_20h38.51.146,intentional_binding_exp,2024.1.5,None,2024-11-14 20h38.58.927232 +0530,
0.1,400,unexp,11,1,133,0,557.1304935000371,,557.1078218000475,557.1304935000371,558.1155630000867,558.1155630000867,558.132145000156,558.4411707001273,space,0.31521970010362566,None,558.4424394001253,558.5494669667135,558.8996491001453,558.8598947001155,558.8599465000443,558.8996491001453,558.8996491001453,558.8996491001453,560.5413741001394,100,1,[1.6788265998475254],[1.6788416998460889],754882,001,2024-11-14_20h38.51.146,intentional_binding_exp,2024.1.5,None,2024-11-14 20h38.58.927232 +0530,
0.4,400,unexp,11,2,134,1,560.5673868001904,,560.5433588000014,560.5673868001904,561.5525675001554,561.5525675001554,561.5694248001091,561.9961635000072,space,0.42834419989958405,None,561.9972718001809,562.4036992667864,562.7534194001928,562.7105312000494,562.7105844002217,562.7534194001928,562.7534194001928,562.7534194001928,565.0165325000416,100,1,[2.3029666000511497],[2.3029877000954],754882,001,2024-11-14_20h38.51.146,intentional_binding_exp,2024.1.5,None,2024-11-14 20h38.58.927232 +0530,
0.7,1000,exp,11,3,135,8,565.0389228002168,,565.0201094001532,565.0389228002168,566.0243382002227,566.0243382002227,566.040950300172,566.3300705000293,space,0.3001552999485284,None,566.3307801000774,567.0421201668835,567.392577300081,567.3505160000641,567.3505687001161,567.392577300081,567.392577300081,567.392577300081,570.0704253001604,400,1,[2.7169450998771936],[2.7169633000157773],754882,001,2024-11-14_20h38.51.146,intentional_binding_exp,2024.1.5,None,2024-11-14 20h38.58.927232 +0530,
0.4,1000,exp,11,4,136,10,570.0944467000663,,570.0729187000543,570.0944467000663,571.079672700027,571.079672700027,571.0963412001729,571.704954400193,space,0.5931582001503557,None,571.7060706000775,572.1143749668884,572.4470478000585,572.4185674001928,572.4186107001733,572.4470478000585,572.4470478000585,572.4470478000585,576.8951943002176,400,1,[4.473802199820057],[4.473825499881059],754882,001,2024-11-14_20h38.51.146,intentional_binding_exp,2024.1.5,None,2024-11-14 20h38.58.927232 +0530,
0.7,400,unexp,11,5,137,2,576.918578500161,,576.8975768000819,576.918578500161,577.904438600177,577.904438600177,577.9207080001943,578.3949603000656,space,0.48222500015981495,None,578.3962066001259,579.1053039667352,579.4551759001333,579.4143582000397,579.4144013000187,579.4551759001333,579.4551759001333,579.4551759001333,580.8658586000092,700,1,[1.448751199990511],[1.4487676999997348],754882,001,2024-11-14_20h38.51.146,intentional_binding_exp,2024.1.5,None,2024-11-14 20h38.58.927232 +0530,
0.4,1000,exp,11,6,138,4,580.8895490001887,,580.8678842000663,580.8895490001887,581.874964900082,581.874964900082,581.8916441001929,582.5975775001571,space,0.7094602999277413,None,582.5982117000967,583.0094612667492,583.3600893002003,583.3185162001755,583.3185619001742,583.3600893002003,583.3600893002003,583.3600893002003,588.2739429001231,400,1,[4.952657600166276],[4.952673500170931],754882,001,2024-11-14_20h38.51.146,intentional_binding_exp,2024.1.5,None,2024-11-14 20h38.58.927232 +0530,
0.7,1000,exp,11,7,139,11,588.2977381001692,,588.2760321001988,588.2977381001692,589.2831604001112,589.2831604001112,589.300412800163,590.3231529002078,space,1.0388515000231564,None,590.3237931001931,591.0349633668704,591.3677511001006,591.3398023000918,591.3398471002001,591.3677511001006,591.3677511001006,591.3677511001006,593.262605600059,700,1,[1.9199680997990072],[1.9199855998158455],754882,001,2024-11-14_20h38.51.146,intentional_binding_exp,2024.1.5,None,2024-11-14 20h38.58.927232 +0530,
0.4,1000,exp,11,8,140,7,593.2864504000172,,593.2648971001618,593.2864504000172,594.2716751000844,594.2716751000844,594.2883564000949,594.9802419000771,space,0.6949718000832945,None,594.9814056002069,595.3896441667496,595.7223829000723,595.6918220000807,595.6918688002042,595.7223829000723,595.7223829000723,595.7223829000723,597.8479407001287,100,1,[2.1534007000736892],[2.15341560007073],754882,001,2024-11-14_20h38.51.146,intentional_binding_exp,2024.1.5,None,2024-11-14 20h38.58.927232 +0530,
0.1,1000,exp,11,9,141,3,597.8591997001786,,597.8503917001653,597.8591997001786,598.8603279001545,598.8603279001545,598.8603279001545,599.2533373001497,space,0.3895397000014782,None,599.254374000011,599.3606468667897,599.7109064001124,599.6704755001701,599.6705289999954,599.7109064001124,599.7109064001124,599.7109064001124,601.071850300068,100,1,[1.3985981999430805],[1.3986150999553502],754882,001,2024-11-14_20h38.51.146,intentional_binding_exp,2024.1.5,None,2024-11-14 20h38.58.927232 +0530,
0.1,1000,exp,11,10,142,6,601.0951343001798,,601.0736719002016,601.0951343001798,602.0818623001687,602.0818623001687,602.0973349001724,602.5713945000898,space,0.47460950003005564,None,602.5722864000127,602.6811000668133,603.0317273000255,602.987825400196,602.9878813000396,603.0317273000255,603.0317273000255,603.0317273000255,604.3416854001116,100,1,[1.3510459999088198],[1.3510636000428349],754882,001,2024-11-14_20h38.51.146,intentional_binding_exp,2024.1.5,None,2024-11-14 20h38.58.927232 +0530,
0.1,1000,exp,11,11,143,9,604.3653857000172,,604.3439280001912,604.3653857000172,605.350515600061,605.350515600061,605.3674469001126,605.7056168001145,space,0.3418264000210911,None,605.7062371000648,605.8179578667662,606.1504430000205,606.1239480001386,606.1239933001343,606.1504430000205,606.1504430000205,606.1504430000205,607.2922340000514,100,1,[1.1653878998477012],[1.1654048999771476],754882,001,2024-11-14_20h38.51.146,intentional_binding_exp,2024.1.5,None,2024-11-14 20h38.58.927232 +0530,
0.7,1000,exp,12,0,144,11,607.3188193000387,,607.2948626000434,607.3188193000387,608.3035548001062,608.3035548001062,608.3206231000368,608.7257540000137,space,0.4102612999267876,None,608.7263689001556,609.4385052668551,609.7711814001668,609.7413689000532,609.7414189002011,609.7711814001668,609.7711814001668,609.7711814001668,612.199887300143,400,1,[2.4556992000434548],[2.455716200172901],754882,001,2024-11-14_20h38.51.146,intentional_binding_exp,2024.1.5,None,2024-11-14 20h38.58.927232 +0530,
0.4,1000,exp,12,1,145,10,612.2239216000307,,612.201955200173,612.2239216000307,613.2252678000368,613.2252678000368,613.2426603001077,613.6519177001901,space,0.4227891000919044,None,613.6526781001594,614.0601690668302,614.4102185000665,614.369193600025,614.3692458001897,614.4102185000665,614.4102185000665,614.4102185000665,616.1376122001093,400,1,[1.7655919999815524],[1.765609199879691],754882,001,2024-11-14_20h38.51.146,intentional_binding_exp,2024.1.5,None,2024-11-14 20h38.58.927232 +0530,
0.1,1000,exp,12,2,146,6,616.1616017001215,,616.1399656001013,616.1616017001215,617.1468586002011,617.1468586002011,617.1635798001662,617.5189582000021,space,0.35607269988395274,None,617.5195375001058,617.6307479667632,617.9811607000884,617.9425242000725,617.9425751001108,617.9811607000884,617.9811607000884,617.9811607000884,619.6216330002062,100,1,[1.6764300998765975],[1.6764420999679714],754882,001,2024-11-14_20h38.51.146,intentional_binding_exp,2024.1.5,None,2024-11-14 20h38.58.927232 +0530,
0.7,1000,exp,12,3,147,8,619.6326390001923,,619.6232461000327,619.6326390001923,620.6340429000556,620.6340429000556,620.6340429000556,620.9942034000997,space,0.35635480005294085,None,620.9953713000286,621.701950466788,622.0345295001753,622.0064330000896,622.0064766001888,622.0345295001753,622.0345295001753,622.0345295001753,623.3284045001492,70,1,[1.3190647999290377],[1.3190855998545885],754882,001,2024-11-14_20h38.51.146,intentional_binding_exp,2024.1.5,None,2024-11-14 20h38.58.927232 +0530,
0.1,1000,exp,12,4,148,3,623.3530402001925,,623.3308807001449,623.3530402001925,624.3539296002127,624.3539296002127,624.3714610000607,625.4802667000331,space,1.0939263999462128,None,625.4814055000897,625.5894603667005,625.9390612000134,625.8998216001783,625.8998760001268,625.9390612000134,625.9390612000134,625.9390612000134,628.7341402000748,400,1,[2.831506700022146],[2.831524300156161],754882,001,2024-11-14_20h38.51.146,intentional_binding_exp,2024.1.5,None,2024-11-14 20h38.58.927232 +0530,
0.7,400,unexp,12,5,149,2,628.7586262000259,,628.7364797000773,628.7586262000259,629.7437552001793,629.7437552001793,629.7604604000226,630.8844822000246,space,1.1246825000271201,None,630.8856511001941,631.595945266836,631.9462441999931,631.9052588001359,631.9053122000769,631.9462441999931,631.9462441999931,631.9462441999931,633.774729500059,700,1,[1.866464100079611],[1.8664798000827432],754882,001,2024-11-14_20h38.51.146,intentional_binding_exp,2024.1.5,None,2024-11-14 20h38.58.927232 +0530,
0.4,1000,exp,12,6,150,7,633.7974348000716,,633.7766202001367,633.7974348000716,634.782651200192,634.782651200192,634.7993544000201,635.240059300093,space,0.4560076999478042,None,635.2409632001072,635.6503165667566,635.9999644001946,635.9585295000579,635.9585824001115,635.9999644001946,635.9999644001946,635.9999644001946,638.4110854000319,400,1,[2.4497299001086503],[2.4497478001285344],754882,001,2024-11-14_20h38.51.146,intentional_binding_exp,2024.1.5,None,2024-11-14 20h38.58.927232 +0530,
0.4,400,unexp,12,7,151,1,638.4365900000557,,638.4135915001389,638.4365900000557,639.4373664001469,639.4373664001469,639.4546986999922,641.6955552001018,space,2.246008099988103,None,641.6962202000432,642.1076496667849,642.4402850000188,642.4118487001397,642.411901100073,642.4402850000188,642.4402850000188,642.4402850000188,643.7511825000402,400,1,[1.33637350006029],[1.3363971000071615],754882,001,2024-11-14_20h38.51.146,intentional_binding_exp,2024.1.5,None,2024-11-14 20h38.58.927232 +0530,
0.1,1000,exp,12,8,152,9,643.7751262001693,,643.7536963000894,643.7751262001693,644.7766115001868,644.7766115001868,644.7939455001615,645.6546838001814,space,0.8720849000383168,None,645.6560202999972,645.7616928667451,646.1118113000412,646.0708236000501,646.0708771999925,646.1118113000412,646.1118113000412,646.1118113000412,648.3398134000599,400,1,[2.266038800124079],[2.2660606000572443],754882,001,2024-11-14_20h38.51.146,intentional_binding_exp,2024.1.5,None,2024-11-14 20h38.58.927232 +0530,
0.1,400,unexp,12,9,153,0,648.3633860000409,,648.3419674001634,648.3633860000409,649.3489093000535,649.3489093000535,649.3653773001861,649.8586576001253,space,0.4888802000787109,None,649.8598151002079,649.9663221666744,650.3157821001951,650.2730661001988,650.2731111000758,650.3157821001951,650.3157821001951,650.3157821001951,651.8100900000427,400,1,[1.534308600006625],[1.534325199900195],754882,001,2024-11-14_20h38.51.146,intentional_binding_exp,2024.1.5,None,2024-11-14 20h38.58.927232 +0530,
0.4,1000,exp,12,10,154,4,651.8342850001063,,651.8120289000217,651.8342850001063,652.8350333000999,652.8350333000999,652.8527135001495,653.2447822000831,space,0.3919198999647051,None,653.2458968001883,653.6540017668779,654.0038602000568,653.9638281001244,653.9638731000014,654.0038602000568,654.0038602000568,654.0038602000568,656.1809643001761,400,1,[2.214422299992293],[2.2144398000091314],754882,001,2024-11-14_20h38.51.146,intentional_binding_exp,2024.1.5,None,2024-11-14 20h38.58.927232 +0530,
0.7,1000,exp,12,11,155,5,656.205277300207,,656.1829370001797,656.205277300207,657.1904841000214,657.1904841000214,657.207233000081,657.498130600201,space,0.2940305999945849,None,657.4994612000883,658.2084847668341,658.5579786000308,658.5183493001387,658.5183944001328,658.5579786000308,658.5579786000308,658.5579786000308,659.8701239000075,700,1,[1.348750000121072],[1.3487716000527143],754882,001,2024-11-14_20h38.51.146,intentional_binding_exp,2024.1.5,None,2024-11-14 20h38.58.927232 +0530,
0.4,400,unexp,13,0,156,1,659.8928024000488,,659.8729540000204,659.8928024000488,660.8780033001676,660.8780033001676,660.8947525999974,661.370596599998,space,0.47705919994041324,None,661.3716609000694,661.779216666768,662.1116036002059,662.0826613001991,662.0827027000487,662.1116036002059,662.1116036002059,662.1116036002059,663.7574000000022,400,1,[1.6717383000068367],[1.6717632000800222],754882,001,2024-11-14_20h38.51.146,intentional_binding_exp,2024.1.5,None,2024-11-14 20h38.58.927232 +0530,
0.7,1000,exp,13,1,157,8,663.7803244001698,,663.7600253000855,663.7803244001698,664.766144500114,664.766144500114,664.7821319000795,665.1381805001292,space,0.3572515998966992,None,665.1390309000853,665.8504171667776,666.1828584000468,666.1556964002084,666.1557437002193,666.1828584000468,666.1828584000468,666.1828584000468,668.0775504000485,400,1,[1.918873499846086],[1.9188909998629242],754882,001,2024-11-14_20h38.51.146,intentional_binding_exp,2024.1.5,None,2024-11-14 20h38.58.927232 +0530,
0.1,400,unexp,13,2,158,0,668.101686200127,,668.0797849001829,668.101686200127,669.0871833001729,669.0871833001729,669.1044020000845,669.427569200052,space,0.33208469999954104,None,669.4283704000991,669.5373921667381,669.8703928000759,669.8383125001565,669.8383561000228,669.8703928000759,669.8703928000759,669.8703928000759,671.2296843000222,100,1,[1.388802899979055],[1.388816400198266],754882,001,2024-11-14_20h38.51.146,intentional_binding_exp,2024.1.5,None,2024-11-14 20h38.58.927232 +0530,
0.1,1000,exp,13,3,159,9,671.2392907000612,,671.231469000224,671.2392907000612,672.2407778000925,672.2407778000925,672.2407778000925,672.5669612002093,space,0.30526369996368885,None,672.568145000143,672.6749370666842,673.0246359000448,672.9824526000302,672.9825082002208,673.0246359000448,673.0246359000448,673.0246359000448,674.2177513001952,100,1,[1.2324448998551816],[1.2324632999952883],754882,001,2024-11-14_20h38.51.146,intentional_binding_exp,2024.1.5,None,2024-11-14 20h38.58.927232 +0530,
0.4,1000,exp,13,4,160,4,674.241926100105,,674.2199736000039,674.241926100105,675.2269714002032,675.2269714002032,675.2436751001514,675.5695205000229,space,0.3217317000962794,None,675.570596100064,675.977876466761,676.3106228001416,676.2784398000222,676.278515700018,676.3106228001416,676.3106228001416,676.3106228001416,677.6708632002119,400,1,[1.388932199915871],[1.3889492999296635],754882,001,2024-11-14_20h38.51.146,intentional_binding_exp,2024.1.5,None,2024-11-14 20h38.58.927232 +0530,
0.1,1000,exp,13,5,161,3,677.6956241000444,,677.6730703001376,677.6956241000444,678.6807593000121,678.6807593000121,678.6974985001143,679.1360333000775,space,0.4439455000683665,None,679.1366935002152,679.2481961667693,679.5809955000877,679.553184500197,679.5532323000953,679.5809955000877,679.5809955000877,679.5809955000877,680.8079063000623,10,1,[1.25163620011881],[1.2516542000230402],754882,001,2024-11-14_20h38.51.146,intentional_binding_exp,2024.1.5,None,2024-11-14 20h38.58.927232 +0530,
0.7,1000,exp,13,6,162,5,680.8323377000634,,680.8108067000285,680.8323377000634,681.8176386000123,681.8176386000123,681.8344004000537,682.3564806000795,space,0.5374207000713795,None,682.3571416002233,683.0688846668384,683.4015938001685,683.3719143001363,683.3719577000011,683.4015938001685,683.4015938001685,683.4015938001685,684.9955875000451,400,1,[1.620908899931237],[1.620926999952644],754882,001,2024-11-14_20h38.51.146,intentional_binding_exp,2024.1.5,None,2024-11-14 20h38.58.927232 +0530,
0.7,400,unexp,13,7,163,2,685.0204710999969,,684.9979397000279,685.0204710999969,686.0057028001174,686.0057028001174,686.0222717002034,686.4662209001835,space,0.45275639998726547,None,686.4673873002175,687.1735431666641,687.523044800153,687.4785918002017,687.4786449000239,687.523044800153,687.523044800153,687.523044800153,688.9339601001702,700,1,[1.452571399975568],[1.452589200111106],754882,001,2024-11-14_20h38.51.146,intentional_binding_exp,2024.1.5,None,2024-11-14 20h38.58.927232 +0530,
0.1,1000,exp,13,8,164,6,688.9578750000801,,688.9361209000926,688.9578750000801,689.9429317000322,689.9429317000322,689.9598579001613,690.2664627002086,space,0.3109963999595493,None,690.267239900073,690.3770999666924,690.7097352000419,690.6784312000964,690.6784872000571,690.7097352000419,690.7097352000419,690.7097352000419,692.6876974001061,400,1,[2.006140099838376],[2.0061577998567373],754882,001,2024-11-14_20h38.51.146,intentional_binding_exp,2024.1.5,None,2024-11-14 20h38.58.927232 +0530,
0.4,1000,exp,13,9,165,10,692.712063100189,,692.6898620000575,692.712063100189,693.6978330002166,693.6978330002166,693.7138612000272,694.1569898000453,space,0.45710629993118346,None,694.1579704000615,694.5650903667013,694.897731800098,694.8704826000612,694.8705320002045,694.897731800098,694.897731800098,694.897731800098,698.0935433001723,100,1,[3.220303400186822],[3.2203202000819147],754882,001,2024-11-14_20h38.51.146,intentional_binding_exp,2024.1.5,None,2024-11-14 20h38.58.927232 +0530,
0.4,1000,exp,13,10,166,7,698.117976100184,,698.0958847000729,698.117976100184,699.1030624001287,699.1030624001287,699.1198561000638,699.2631333000027,space,0.15111460001207888,None,699.2642839001492,699.6704043667453,700.0214088000357,699.9798632001039,699.9799164000433,700.0214088000357,700.0214088000357,700.0214088000357,701.4968446001876,100,1,[1.5142179001122713],[1.5142343000043184],754882,001,2024-11-14_20h38.51.146,intentional_binding_exp,2024.1.5,None,2024-11-14 20h38.58.927232 +0530,
0.7,1000,exp,13,11,167,11,701.521539100213,,701.4987147001084,701.521539100213,702.5227611002047,702.5227611002047,702.5404495000839,702.9333566001151,space,0.4074235998559743,None,702.9344417001121,703.6420040666746,703.9744932001922,703.9478252001572,703.9478697001468,703.9744932001922,703.9744932001922,703.9744932001922,705.0012742001563,400,1,[1.0503648999147117],[1.0503821999300271],754882,001,2024-11-14_20h38.51.146,intentional_binding_exp,2024.1.5,None,2024-11-14 20h38.58.927232 +0530,
0.1,1000,exp,14,0,168,9,705.0254745001439,,705.0036646001972,705.0254745001439,706.0106004001573,706.0106004001573,706.0274987001903,706.3343060000334,space,0.3214386000763625,None,706.3355388001073,706.4446788668322,706.7775252000429,706.7527720001526,706.7527970001101,706.7775252000429,706.7775252000429,706.7775252000429,708.7055596001446,100,1,[1.9508750999812037],[1.9508932000026107],754882,001,2024-11-14_20h38.51.146,intentional_binding_exp,2024.1.5,None,2024-11-14 20h38.58.927232 +0530,
0.4,400,unexp,14,1,169,1,708.729616700206,,708.7078694000375,708.729616700206,709.7145212001633,709.7145212001633,709.73159640003,710.0366515000351,space,0.32108709984458983,None,710.0371832000092,710.4487698667838,710.7816165001132,710.7533378000371,710.753391600214,710.7816165001132,710.7816165001132,710.7816165001132,713.326990700094,400,1,[2.570645600091666],[2.5706685001496226],754882,001,2024-11-14_20h38.51.146,intentional_binding_exp,2024.1.5,None,2024-11-14 20h38.58.927232 +0530,
0.1,1000,exp,14,2,170,6,713.3514361002017,,713.3292555001099,713.3514361002017,714.3365102000535,714.3365102000535,714.3532092000823,714.6273929001763,space,0.28299569990485907,None,714.6283028000034,714.7369800666968,715.086853899993,715.0412727000657,715.0413180000614,715.086853899993,715.086853899993,715.086853899993,716.514496000018,100,1,[1.470394300064072],[1.4704115001950413],754882,001,2024-11-14_20h38.51.146,intentional_binding_exp,2024.1.5,None,2024-11-14 20h38.58.927232 +0530,
0.4,1000,exp,14,3,171,10,716.5378991002217,,716.516736500198,716.5378991002217,717.5237481000368,717.5237481000368,717.539942700183,717.897915400099,space,0.3419176999013871,None,717.8990419001784,718.3074204668558,718.6404199001845,718.6145572999958,718.6146140000783,718.6404199001845,718.6404199001845,718.6404199001845,720.6024288001936,400,1,[1.984983399976045],[1.985001299995929],754882,001,2024-11-14_20h38.51.146,intentional_binding_exp,2024.1.5,None,2024-11-14 20h38.58.927232 +0530,
0.7,1000,exp,14,4,172,11,720.6258398001082,,720.6047112001106,720.6258398001082,721.6110070000868,721.6110070000868,721.6276998000685,722.0356943001971,space,0.39166979980655015,None,722.0368222000543,722.7457504668894,723.0962079002056,723.0517665999942,723.0518108000979,723.0962079002056,723.0962079002056,723.0962079002056,724.3208571001887,700,1,[1.2662215000018477],[1.2662365001160651],754882,001,2024-11-14_20h38.51.146,intentional_binding_exp,2024.1.5,None,2024-11-14 20h38.58.927232 +0530,
0.1,400,unexp,14,5,173,0,724.3308103000745,,724.322645300068,724.3308103000745,725.3318062000908,725.3318062000908,725.3318062000908,725.8259759000503,space,0.47995609999634326,None,725.8270559001248,725.9324053668572,726.2824060001876,726.2410584001336,726.2411072000396,726.2824060001876,726.2824060001876,726.2824060001876,728.2742836000398,400,1,[2.030439900001511],[2.0304532998707145],754882,001,2024-11-14_20h38.51.146,intentional_binding_exp,2024.1.5,None,2024-11-14 20h38.58.927232 +0530,
0.4,1000,exp,14,6,174,7,728.2848872002214,,728.2761733001098,728.2848872002214,729.2862562001683,729.2862562001683,729.2862562001683,729.7616652001161,space,0.4411988998763263,None,729.7629755001981,730.1705357668145,730.5030722999945,730.4760018000379,730.4760472001508,730.5030722999945,730.5030722999945,730.5030722999945,733.7986909002066,400,1,[3.319870200008154],[3.3198848001193255],754882,001,2024-11-14_20h38.51.146,intentional_binding_exp,2024.1.5,None,2024-11-14 20h38.58.927232 +0530,
0.7,400,unexp,14,7,175,2,733.8241325002164,,733.8012366001494,733.8241325002164,734.8087426000275,734.8087426000275,734.8261061001103,735.1133449000772,space,0.29180820006877184,None,735.1138985001016,735.8264508667091,736.1767919000704,736.130690400023,736.1307403000537,736.1767919000704,736.1767919000704,736.1767919000704,737.7001075001899,700,1,[1.5670963001903147],[1.567103800131008],754882,001,2024-11-14_20h38.51.146,intentional_binding_exp,2024.1.5,None,2024-11-14 20h38.58.927232 +0530,
0.4,1000,exp,14,8,176,4,737.7118090000004,,737.7010793001391,737.7118090000004,738.7129910001531,738.7129910001531,738.7129910001531,739.4185476000421,space,0.6884681000374258,None,739.4193240001332,739.8307714667792,740.1636952999979,740.1317864002194,740.1318370001391,740.1636952999979,740.1636952999979,740.1636952999979,741.6061212001368,400,1,[1.4715253000613302],[1.4715557999443263],754882,001,2024-11-14_20h38.51.146,intentional_binding_exp,2024.1.5,None,2024-11-14 20h38.58.927232 +0530,
0.7,1000,exp,14,9,177,8,741.6163614001125,,741.607660200214,741.6163614001125,742.617190200137,742.617190200137,742.617190200137,743.0576077001169,space,0.43550000013783574,None,743.0583109001163,743.7684384668867,744.1012536000926,744.0754381001461,744.0754693001509,744.1012536000926,744.1012536000926,744.1012536000926,745.8601844001096,700,1,[1.782969000050798],[1.7829824001528323],754882,001,2024-11-14_20h38.51.146,intentional_binding_exp,2024.1.5,None,2024-11-14 20h38.58.927232 +0530,
0.1,1000,exp,14,10,178,3,745.8710947001819,,745.8612382002175,745.8710947001819,746.8719113999978,746.8719113999978,746.8719113999978,747.2603250001557,space,0.3828934000339359,None,747.2608559001237,747.3724469668853,747.705688000191,747.6729660001583,747.6729923000094,747.705688000191,747.705688000191,747.705688000191,749.0302083001006,100,1,[1.355162300169468],[1.355172700015828],754882,001,2024-11-14_20h38.51.146,intentional_binding_exp,2024.1.5,None,2024-11-14 20h38.58.927232 +0530,
0.7,1000,exp,14,11,179,5,749.0411202001851,,749.0324583000038,749.0411202001851,750.0427693000529,750.0427693000529,750.0427693000529,750.4353633001447,space,0.3885450998786837,None,750.4361095000058,751.1432131666845,751.4764784001745,751.4460846001748,751.4461136001628,751.4764784001745,751.4764784001745,751.4764784001745,753.3178069000132,400,1,[1.8699703000020236],[1.8699776998255402],754882,001,2024-11-14_20h38.51.146,intentional_binding_exp,2024.1.5,None,2024-11-14 20h38.58.927232 +0530,
0.7,400,unexp,15,0,180,2,753.3290340001695,,753.3188178001437,753.3290340001695,754.3303560002241,754.3303560002241,754.3303560002241,754.6184810001869,space,0.2757516000419855,None,754.6190515002236,755.3311149667172,755.6808968000114,755.6383604002185,755.6384095000103,755.6808968000114,755.6808968000114,755.6808968000114,756.9865265002009,700,1,[1.3456516000442207],[1.345661300001666],754882,001,2024-11-14_20h38.51.146,intentional_binding_exp,2024.1.5,None,2024-11-14 20h38.58.927232 +0530,
0.4,1000,exp,15,1,181,10,756.999670300167,,756.9875285001472,756.999670300167,758.0007286001928,758.0007286001928,758.0007286001928,758.5574838002212,space,0.5426856998819858,None,758.558214600198,758.9684077667227,759.3013488000724,759.2755882001948,759.2756164001767,759.3013488000724,759.3013488000724,759.3013488000724,761.4766540001146,400,1,[2.1993193000089377],[2.199332799995318],754882,001,2024-11-14_20h38.51.146,intentional_binding_exp,2024.1.5,None,2024-11-14 20h38.58.927232 +0530,
0.1,1000,exp,15,2,182,6,761.4879862000234,,761.4780040001497,761.4879862000234,762.489108600188,762.489108600188,762.489108600188,763.5618863001,space,1.0652727999258786,None,763.5625825000461,763.6737321667063,764.0063887001015,763.9795080001932,763.9795380001888,764.0063887001015,764.0063887001015,764.0063887001015,765.3968481000047,40,1,[1.4155414998531342],[1.4155508999247104],754882,001,2024-11-14_20h38.51.146,intentional_binding_exp,2024.1.5,None,2024-11-14 20h38.58.927232 +0530,
0.1,400,unexp,15,3,183,0,765.4092104001902,,765.3979460000992,765.4092104001902,766.4103585002013,766.4103585002013,766.4103585002013,767.0507904000115,space,0.6361302000004798,None,767.0515116001479,767.1613072667426,767.4936975000892,767.4675507000647,767.4675823000725,767.4936975000892,767.4936975000892,767.4936975000892,770.1510957002174,400,1,[2.6817186002153903],[2.681727300165221],754882,001,2024-11-14_20h38.51.146,intentional_binding_exp,2024.1.5,None,2024-11-14 20h38.58.927232 +0530,
0.1,1000,exp,15,4,184,3,770.1640859001782,,770.1521321001928,770.1640859001782,771.1654262000229,771.1654262000229,771.1654262000229,771.5074260002002,space,0.3356143001001328,None,771.5082233001012,771.615771366811,771.9487574000377,771.9155493001454,771.9155974001624,771.9487574000377,771.9487574000377,771.9487574000377,773.4075823000167,100,1,[1.4894591001793742],[1.4894730001688004],754882,001,2024-11-14_20h38.51.146,intentional_binding_exp,2024.1.5,None,2024-11-14 20h38.58.927232 +0530,
0.4,1000,exp,15,5,185,7,773.4176570000127,,773.409909500042,773.4176570000127,774.4189221002162,774.4189221002162,774.4189221002162,776.0289491000585,space,1.6046960998792201,None,776.0297957002185,776.4378310668437,776.7710109001491,776.7387305002194,776.738770400174,776.7710109001491,776.7710109001491,776.7710109001491,778.2812712001614,400,1,[1.5401131000835449],[1.5401316999923438],754882,001,2024-11-14_20h38.51.146,intentional_binding_exp,2024.1.5,None,2024-11-14 20h38.58.927232 +0530,
0.7,1000,exp,15,6,186,5,778.3057113999967,,778.2836670000106,778.3057113999967,779.2909692001995,779.2909692001995,779.3078569001518,780.3318303001579,space,1.0354918001685292,None,780.3326555001549,781.0428736666838,781.3757667001337,781.345213000197,781.3452657000162,781.3757667001337,781.3757667001337,781.3757667001337,782.6867994000204,400,1,[1.3386537998449057],[1.3386760998982936],754882,001,2024-11-14_20h38.51.146,intentional_binding_exp,2024.1.5,None,2024-11-14 20h38.58.927232 +0530,
0.4,1000,exp,15,7,187,4,782.7104226001538,,782.6890447000042,782.7104226001538,783.6957504001912,783.6957504001912,783.7122148000635,784.5056760001462,space,0.7977833999320865,None,784.5067542002071,784.9137037667135,785.2465944001451,785.2185310001951,785.2185723001603,785.2465944001451,785.2465944001451,785.2465944001451,786.9745692000724,400,1,[1.7533043001312762],[1.7533209000248462],754882,001,2024-11-14_20h38.51.146,intentional_binding_exp,2024.1.5,None,2024-11-14 20h38.58.927232 +0530,
0.1,1000,exp,15,8,188,9,786.9986147000454,,786.9766704000067,786.9986147000454,787.9996323999949,787.9996323999949,788.0172684001736,788.8566946000792,space,0.8343831000383943,None,788.8575009000488,788.9681342668521,789.3013183001895,789.2705960001331,789.2706419001333,789.3013183001895,789.3013183001895,789.3013183001895,790.7117316001095,100,1,[1.4385424999054521],[1.4385603999253362],754882,001,2024-11-14_20h38.51.146,intentional_binding_exp,2024.1.5,None,2024-11-14 20h38.58.927232 +0530,
0.4,400,unexp,15,9,189,1,790.7361554000527,,790.7139672001358,790.7361554000527,791.7213582000695,791.7213582000695,791.7380678001791,792.0968228999991,space,0.3601184000726789,None,792.0978817001451,792.5054457667904,792.8560725001153,792.8118351001758,792.8118830001913,792.8560725001153,792.8560725001153,792.8560725001153,795.2344209000003,400,1,[2.4195463999640197],[2.419567600125447],754882,001,2024-11-14_20h38.51.146,intentional_binding_exp,2024.1.5,None,2024-11-14 20h38.58.927232 +0530,
0.7,1000,exp,15,10,190,11,795.257695000153,,795.2371162001509,795.257695000153,796.2427648000885,796.2427648000885,796.2594511001371,796.54956280021,space,0.29775939998216927,None,796.550317000132,797.26101686672,797.6102982000448,797.5692319001537,797.5692847000901,797.6102982000448,797.6102982000448,797.6102982000448,800.6565473000519,400,1,[3.0843878998421133],[3.0844056999776512],754882,001,2024-11-14_20h38.51.146,intentional_binding_exp,2024.1.5,None,2024-11-14 20h38.58.927232 +0530,
0.7,1000,exp,15,11,191,8,800.6803419000935,,800.6588036001194,800.6803419000935,801.6652440000325,801.6652440000325,801.6820039001759,802.0561899000313,space,0.38839500001631677,None,802.0570704001002,802.7665993667363,803.1171832000837,803.0731603000313,803.0732137002051,803.1171832000837,803.1171832000837,803.1171832000837,804.3941281000152,700,1,[1.3178238000255078],[1.3178813999984413],754882,001,2024-11-14_20h38.51.146,intentional_binding_exp,2024.1.5,None,2024-11-14 20h38.58.927232 +0530,
0.7,1000,exp,16,0,192,11,804.41752430005,,804.3972094000783,804.41752430005,805.4032213001046,805.4032213001046,805.4196343000513,805.76003460004,space,0.3177207000553608,None,805.7610244001262,806.4704891667391,806.8032461002003,806.7746558000799,806.7747007000726,806.8032461002003,806.8032461002003,806.8032461002003,808.1934688000474,700,1,[1.4162385000381619],[1.4162498000077903],754882,001,2024-11-14_20h38.51.146,intentional_binding_exp,2024.1.5,None,2024-11-14 20h38.58.927232 +0530,
0.7,1000,exp,16,1,193,8,808.2064188001677,,808.194767500041,808.2064188001677,809.206997500034,809.206997500034,809.206997500034,809.7986934001092,space,0.5756107999477535,None,809.7995533000212,810.5084129667996,810.8582979000639,810.8171278000809,810.8171804000158,810.8582979000639,810.8582979000639,810.8582979000639,812.3019432001747,700,1,[1.4816266999114305],[1.481648299843073],754882,001,2024-11-14_20h38.51.146,intentional_binding_exp,2024.1.5,None,2024-11-14 20h38.58.927232 +0530,
0.1,1000,exp,16,2,194,3,812.3262187000364,,812.305205500219,812.3262187000364,813.3114305001218,813.3114305001218,813.3439054000191,813.8207593001425,space,0.5034181999508291,None,813.8217313000932,813.9288654667946,814.2620596000925,814.2319696000777,814.23202580004,814.2620596000925,814.2620596000925,814.2620596000925,815.8191749001853,100,1,[1.5847704000771046],[1.5847808001562953],754882,001,2024-11-14_20h38.51.146,intentional_binding_exp,2024.1.5,None,2024-11-14 20h38.58.927232 +0530,
0.7,1000,exp,16,3,195,5,815.8309594001621,,815.8204919002019,815.8309594001621,816.8323000001255,816.8323000001255,816.8323000001255,817.1373100001365,space,0.30200170003809035,None,817.1379417001735,817.8498077667939,818.1823806001339,818.155871400144,818.1559204000514,818.1823806001339,818.1823806001339,818.1823806001339,819.6600516000763,400,1,[1.5012982001062483],[1.5013166000135243],754882,001,2024-11-14_20h38.51.146,intentional_binding_exp,2024.1.5,None,2024-11-14 20h38.58.927232 +0530,
0.1,1000,exp,16,4,196,6,819.6842577999923,,819.6617398001254,819.6842577999923,820.6696774000302,820.6696774000302,820.6863250001334,821.0773310000077,space,0.37453589984215796,None,821.0784832001664,821.1868570668778,821.537640399998,821.4944846001454,821.4945288000163,821.537640399998,821.537640399998,821.537640399998,822.5968880001456,100,1,[1.0995185000356287],[1.0995358999352902],754882,001,2024-11-14_20h38.51.146,intentional_binding_exp,2024.1.5,None,2024-11-14 20h38.58.927232 +0530,
0.1,1000,exp,16,5,197,9,822.6205857000314,,822.5991065001581,822.6205857000314,823.6060162000358,823.6060162000358,823.6230329000391,823.9298085002229,space,0.3108551998157054,None,823.9306049000006,824.0399393668088,824.3726792000234,824.3424142000731,824.342457300052,824.3726792000234,824.3726792000234,824.3726792000234,825.5338907002006,100,1,[1.188861700007692],[1.1888832999393344],754882,001,2024-11-14_20h38.51.146,intentional_binding_exp,2024.1.5,None,2024-11-14 20h38.58.927232 +0530,
