stimulus,condition,corr_resp,trials.thisRepN,trials.thisTrialN,trials.thisN,trials.thisIndex,thisRow.t,notes,instructions.started,text_2.started,instructions.stopped,trial.started,fixation.started,text.started,key_resp.started,fixation.stopped,trial.stopped,key_resp.keys,key_resp.corr,key_resp.rt,key_resp.duration,thank_you.started,text_3.started,thank_you.stopped,participant,date,expName,psychopyVersion,frameRate,expStart,
,,,,,,,,,0.023027700022794306,0.04695800004992634,10.000653499970213,,,,,,,,,,,,,,tanisha,2024-12-01_18h16.21.208,solo_project,2024.1.5,None,2024-12-01 18h16.35.867044 +0530,
ceremony  ,control,y,0,0,0,18,10.058513200026937,,,,,10.029213499976322,10.058513200026937,10.525729599990882,10.525729599990882,10.577323799952865,11.948772800038569,y,1,1.3971094000153244,None,,,,tanisha,2024-12-01_18h16.21.208,solo_project,2024.1.5,None,2024-12-01 18h16.35.867044 +0530,
proposal  ,control,y,0,1,1,6,11.977249099989422,,,,,11.95056869997643,11.977249099989422,12.47781449998729,12.47781449998729,12.49596129998099,13.32048009999562,y,1,0.8194079999811947,None,,,,tanisha,2024-12-01_18h16.21.208,solo_project,2024.1.5,None,2024-12-01 18h16.35.867044 +0530,
propasol,vvtl,n,0,2,2,7,13.345486200065352,,,,,13.32184029999189,13.345486200065352,13.846010299981572,13.846010299981572,13.864174899994396,14.85614509996958,n,1,0.9803725000238046,None,,,,tanisha,2024-12-01_18h16.21.208,solo_project,2024.1.5,None,2024-12-01 18h16.35.867044 +0530,
marginal  ,control,y,0,3,3,24,14.880484399967827,,,,,14.857372300000861,14.880484399967827,15.381513000000268,15.381513000000268,15.414607199956663,16.47426849999465,y,1,1.0710970999207348,None,,,,tanisha,2024-12-01_18h16.21.208,solo_project,2024.1.5,None,2024-12-01 18h16.35.867044 +0530,
mastike,vvtl,n,0,4,4,37,16.4988633999601,,,,,16.47548070002813,16.4988633999601,16.99936430004891,16.99936430004891,17.01715480000712,18.028008900000714,n,1,1.0179382000351325,None,,,,tanisha,2024-12-01_18h16.21.208,solo_project,2024.1.5,None,2024-12-01 18h16.35.867044 +0530,
mirganal,vvtl,n,0,5,5,25,18.05050640006084,,,,,18.029306899989024,18.05050640006084,18.551179100060835,18.551179100060835,18.569303900003433,19.528051999979652,n,1,0.971668399986811,None,,,,tanisha,2024-12-01_18h16.21.208,solo_project,2024.1.5,None,2024-12-01 18h16.35.867044 +0530,
trubite,vvtl,n,0,6,6,15,19.552355300053023,,,,,19.529266400029883,19.552355300053023,20.053442200063728,20.053442200063728,20.071004900033586,20.912731899996288,n,1,0.848617099924013,None,,,,tanisha,2024-12-01_18h16.21.208,solo_project,2024.1.5,None,2024-12-01 18h16.35.867044 +0530,
specific  ,control,y,0,7,7,10,20.93710540002212,,,,,20.913992200046778,20.93710540002212,21.437778200022876,21.437778200022876,21.45585430006031,22.34699280001223,y,1,0.8873840998858213,None,,,,tanisha,2024-12-01_18h16.21.208,solo_project,2024.1.5,None,2024-12-01 18h16.35.867044 +0530,
stelon,vvtl,n,0,8,8,31,22.372023800038733,,,,,22.348457199987024,22.372023800038733,22.872797399992123,22.872797399992123,22.890701600001194,23.698904399992898,n,1,0.7957688000751659,None,,,,tanisha,2024-12-01_18h16.21.208,solo_project,2024.1.5,None,2024-12-01 18h16.35.867044 +0530,
delicate  ,control,y,0,9,9,28,23.723828200018033,,,,,23.70012100005988,23.723828200018033,24.240919500007294,24.240919500007294,24.240919500007294,24.867290399968624,y,1,0.6079588000429794,None,,,,tanisha,2024-12-01_18h16.21.208,solo_project,2024.1.5,None,2024-12-01 18h16.35.867044 +0530,
mistake  ,control,y,0,10,10,36,24.89144509995822,,,,,24.868696799967438,24.89144509995822,25.392206800053827,25.392206800053827,25.42558529996313,25.954048400046304,y,1,0.5538247000658885,None,,,,tanisha,2024-12-01_18h16.21.208,solo_project,2024.1.5,None,2024-12-01 18h16.35.867044 +0530,
comedy  ,control,y,0,11,11,34,25.975975699955598,,,,,25.955310699995607,25.975975699955598,26.476547199999914,26.476547199999914,26.494911000016145,27.036039100028574,y,1,0.5339057999663055,None,,,,tanisha,2024-12-01_18h16.21.208,solo_project,2024.1.5,None,2024-12-01 18h16.35.867044 +0530,
tribute  ,control,y,0,12,12,14,27.06050200003665,,,,,27.037262700032443,27.06050200003665,27.561052700039,27.561052700039,27.57909190002829,28.303440700052306,y,1,0.7118900999194011,None,,,,tanisha,2024-12-01_18h16.21.208,solo_project,2024.1.5,None,2024-12-01 18h16.35.867044 +0530,
ametaur,vvtl,n,0,13,13,21,28.32858099997975,,,,,28.30469090002589,28.32858099997975,28.82905810000375,28.82905810000375,28.847259900067,30.155655000009574,n,1,1.308366300072521,None,,,,tanisha,2024-12-01_18h16.21.208,solo_project,2024.1.5,None,2024-12-01 18h16.35.867044 +0530,
catogery,vvtl,n,0,14,14,17,30.18060089997016,,,,,30.156895100022666,30.18060089997016,30.681443799985573,30.681443799985573,30.699451499967836,31.70728119998239,n,1,1.0091272999998182,None,,,,tanisha,2024-12-01_18h16.21.208,solo_project,2024.1.5,None,2024-12-01 18h16.35.867044 +0530,
lacote,vvtl,n,0,15,15,33,31.732122499961406,,,,,31.708489799988456,31.732122499961406,32.23279579996597,32.23279579996597,32.2660563000245,33.294500899966806,n,1,1.0484987000236288,None,,,,tanisha,2024-12-01_18h16.21.208,solo_project,2024.1.5,None,2024-12-01 18h16.35.867044 +0530,
delacite,vvtl,n,0,16,16,29,33.317167500033975,,,,,33.29571820003912,33.317167500033975,33.81791220000014,33.81791220000014,33.83621440001298,34.59572109999135,n,1,0.7584403000073507,None,,,,tanisha,2024-12-01_18h16.21.208,solo_project,2024.1.5,None,2024-12-01 18h16.35.867044 +0530,
dacede,vvtl,n,0,17,17,39,34.61860140005592,,,,,34.596923700068146,34.61860140005592,35.11929830000736,35.11929830000736,35.1375247000251,35.8464568000054,n,1,0.7219215000513941,None,,,,tanisha,2024-12-01_18h16.21.208,solo_project,2024.1.5,None,2024-12-01 18h16.35.867044 +0530,
validity  ,control,y,0,18,18,26,35.869423800031655,,,,,35.84771100000944,35.869423800031655,36.370766400010325,36.370766400010325,36.389026100048795,37.31531279999763,y,1,0.9380230000242591,None,,,,tanisha,2024-12-01_18h16.21.208,solo_project,2024.1.5,None,2024-12-01 18h16.35.867044 +0530,
quality  ,control,y,0,19,19,0,37.338294100016356,,,,,37.31657050002832,37.338294100016356,37.83891070005484,37.83891070005484,37.857195700053126,38.66439829999581,y,1,0.7950729000149295,None,,,,tanisha,2024-12-01_18h16.21.208,solo_project,2024.1.5,None,2024-12-01 18h16.35.867044 +0530,
medicine  ,control,y,0,20,20,2,38.68972959998064,,,,,38.66562019998673,38.68972959998064,39.19060219998937,39.19060219998937,39.20887580001727,39.89974090002943,y,1,0.6976118000457063,None,,,,tanisha,2024-12-01_18h16.21.208,solo_project,2024.1.5,None,2024-12-01 18h16.35.867044 +0530,
amateur  ,control,y,0,21,21,20,39.924654499976896,,,,,39.900989899993874,39.924654499976896,40.40921429998707,40.40921429998707,40.42656359996181,41.11760110000614,y,1,0.6920259000035003,None,,,,tanisha,2024-12-01_18h16.21.208,solo_project,2024.1.5,None,2024-12-01 18h16.35.867044 +0530,
specimen  ,control,y,0,22,22,12,41.14293580001686,,,,,41.118820299976505,41.14293580001686,41.643333600019105,41.643333600019105,41.66116789996158,43.77197410003282,y,1,2.1210334000643343,None,,,,tanisha,2024-12-01_18h16.21.208,solo_project,2024.1.5,None,2024-12-01 18h16.35.867044 +0530,
advosiry,vvtl,n,0,23,23,23,43.79535979998764,,,,,43.77329180005472,43.79535979998764,44.29616100003477,44.29616100003477,44.31442800001241,45.355429199989885,n,1,1.041819900041446,None,,,,tanisha,2024-12-01_18h16.21.208,solo_project,2024.1.5,None,2024-12-01 18h16.35.867044 +0530,
category  ,control,y,0,24,24,16,45.38040110003203,,,,,45.356665099970996,45.38040110003203,45.88103829999454,45.88103829999454,45.89913479995448,46.47348449996207,y,1,0.5681922000367194,None,,,,tanisha,2024-12-01_18h16.21.208,solo_project,2024.1.5,None,2024-12-01 18h16.35.867044 +0530,
advisory  ,control,y,0,25,25,22,46.49836780002806,,,,,46.47470909997355,46.49836780002806,46.998968700063415,46.998968700063415,47.01676090003457,47.791744100046344,y,1,0.7631486000027508,None,,,,tanisha,2024-12-01_18h16.21.208,solo_project,2024.1.5,None,2024-12-01 18h16.35.867044 +0530,
cemody,vvtl,n,0,26,26,35,47.81642190006096,,,,,47.79313100001309,47.81642190006096,48.31699630001094,48.31699630001094,48.33522630005609,49.195141899981536,n,1,0.8758558999979869,None,,,,tanisha,2024-12-01_18h16.21.208,solo_project,2024.1.5,None,2024-12-01 18h16.35.867044 +0530,
resume  ,control,y,0,27,27,8,49.218211799976416,,,,,49.19638089998625,49.218211799976416,49.71849680005107,49.71849680005107,49.7369470000267,50.42794670001604,y,1,0.7066679999697953,None,,,,tanisha,2024-12-01_18h16.21.208,solo_project,2024.1.5,None,2024-12-01 18h16.35.867044 +0530,
ceromeny,vvtl,n,0,28,28,19,50.452810000046156,,,,,50.429167599999346,50.452810000046156,50.95344159996603,50.95344159996603,50.97176980006043,52.41568330000155,n,1,1.4522814999800175,None,,,,tanisha,2024-12-01_18h16.21.208,solo_project,2024.1.5,None,2024-12-01 18h16.35.867044 +0530,
specemin,vvtl,n,0,29,29,13,52.43807609996293,,,,,52.41692820005119,52.43807609996293,52.93869410001207,52.93869410001207,52.9569024000084,53.831066200044006,n,1,0.8613589000888169,None,,,,tanisha,2024-12-01_18h16.21.208,solo_project,2024.1.5,None,2024-12-01 18h16.35.867044 +0530,
ruseme,vvtl,n,0,30,30,9,53.85651900002267,,,,,53.832280099974014,53.85651900002267,54.357073400053196,54.357073400053196,54.39023699995596,55.13461169996299,n,1,0.759987699915655,None,,,,tanisha,2024-12-01_18h16.21.208,solo_project,2024.1.5,None,2024-12-01 18h16.35.867044 +0530,
quilaty,vvtl,n,0,31,31,1,55.15783739998005,,,,,55.135825900011696,55.15783739998005,55.65829299995676,55.65829299995676,55.67661159997806,56.58450920006726,n,1,0.8965412999968976,None,,,,tanisha,2024-12-01_18h16.21.208,solo_project,2024.1.5,None,2024-12-01 18h16.35.867044 +0530,
midecine,vvtl,n,0,32,32,3,56.609276200062595,,,,,56.58578940003645,56.609276200062595,57.1098578000674,57.1098578000674,57.128097200067714,57.90408380003646,n,1,0.7859224999556318,None,,,,tanisha,2024-12-01_18h16.21.208,solo_project,2024.1.5,None,2024-12-01 18h16.35.867044 +0530,
decade  ,control,y,0,33,33,38,57.9275454999879,,,,,57.90527780004777,57.9275454999879,58.42792990000453,58.42792990000453,58.44631330005359,59.15551810001489,y,1,0.7250119000673294,None,,,,tanisha,2024-12-01_18h16.21.208,solo_project,2024.1.5,None,2024-12-01 18h16.35.867044 +0530,
viladity,vvtl,n,0,34,34,27,59.178799999994226,,,,,59.156774800037965,59.178799999994226,59.67952830006834,59.67952830006834,59.69754109997302,60.44019140000455,n,1,0.757612599991262,None,,,,tanisha,2024-12-01_18h16.21.208,solo_project,2024.1.5,None,2024-12-01 18h16.35.867044 +0530,
spicefic,vvtl,n,0,35,35,11,60.463657599990256,,,,,60.441429600003175,60.463657599990256,60.9643214000389,60.9643214000389,60.9822598999599,61.72589929995593,n,1,0.7598529000533745,None,,,,tanisha,2024-12-01_18h16.21.208,solo_project,2024.1.5,None,2024-12-01 18h16.35.867044 +0530,
locate  ,control,y,0,36,36,32,61.74837120005395,,,,,61.72731400001794,61.74837120005395,62.248896899982356,62.248896899982356,62.266986300004646,63.310225900029764,y,1,1.0565070998854935,None,,,,tanisha,2024-12-01_18h16.21.208,solo_project,2024.1.5,None,2024-12-01 18h16.35.867044 +0530,
radacil,vvtl,n,0,37,37,5,63.333437100052834,,,,,63.31145649997052,63.333437100052834,63.833928400068544,63.833928400068544,63.852163700037636,65.2462380999932,n,1,1.399139399989508,None,,,,tanisha,2024-12-01_18h16.21.208,solo_project,2024.1.5,None,2024-12-01 18h16.35.867044 +0530,
radical  ,control,y,0,38,38,4,65.26888360001612,,,,,65.24748759996146,65.26888360001612,65.76982180005871,65.76982180005871,65.80322530004196,66.72910360002425,y,1,0.9460095000686124,None,,,,tanisha,2024-12-01_18h16.21.208,solo_project,2024.1.5,None,2024-12-01 18h16.35.867044 +0530,
stolen  ,control,y,0,39,39,30,66.75386519997846,,,,,66.73032780003268,66.75386519997846,67.25433639995754,67.25433639995754,67.27255360002164,67.96374889998697,y,1,0.6866062000626698,None,,,,tanisha,2024-12-01_18h16.21.208,solo_project,2024.1.5,None,2024-12-01 18h16.35.867044 +0530,
,,,,,,,,,,,,,,,,,,,,,,67.96484559995588,67.98854509997182,72.96909030003008,tanisha,2024-12-01_18h16.21.208,solo_project,2024.1.5,None,2024-12-01 18h16.35.867044 +0530,
