stimulus,condition,corr_resp,trials.thisRepN,trials.thisTrialN,trials.thisN,trials.thisIndex,thisRow.t,notes,instructions.started,text_2.started,instructions.stopped,trial.started,fixation.started,text.started,key_resp.started,fixation.stopped,trial.stopped,key_resp.keys,key_resp.corr,key_resp.rt,key_resp.duration,thank_you.started,text_3.started,thank_you.stopped,participant,date,expName,psychopyVersion,frameRate,expStart,
,,,,,,,,,0.014799900003708899,0.03923110000323504,10.024081900017336,,,,,,,,,,,,,,yashi,2024-12-01_14h36.00.627,solo_project,2024.1.5,None,2024-12-01 14h36.17.595689 +0530,
religion  ,control,y,0,0,0,16,10.066929100081325,,,,,10.049009300069883,10.066929100081325,10.517715400084853,10.517715400084853,10.570144500001334,12.58662430010736,y,1,2.049903800012544,None,,,,yashi,2024-12-01_14h36.00.627,solo_project,2024.1.5,None,2024-12-01 14h36.17.595689 +0530,
rapidly  ,control,y,0,1,1,18,12.60360470006708,,,,,12.588745400076732,12.60360470006708,13.120498300064355,13.120498300064355,13.120498300064355,13.832021300098859,y,1,0.7091746999649331,None,,,,yashi,2024-12-01_14h36.00.627,solo_project,2024.1.5,None,2024-12-01 14h36.17.595689 +0530,
probice,ccrl,n,0,2,2,25,13.854728300007991,,,,,13.833268700051121,13.854728300007991,14.355280200019479,14.355280200019479,14.374059100053273,15.514664300018921,n,1,1.1364930999698117,None,,,,yashi,2024-12-01_14h36.00.627,solo_project,2024.1.5,None,2024-12-01 14h36.17.595689 +0530,
samite,ccrl,n,0,3,3,39,15.539787200046703,,,,,15.515883999993093,15.539787200046703,16.04033970006276,16.04033970006276,16.05905400007032,16.85020169999916,n,1,0.7835201000561938,None,,,,yashi,2024-12-01_14h36.00.627,solo_project,2024.1.5,None,2024-12-01 14h36.17.595689 +0530,
beloved  ,control,y,0,4,4,20,16.874108000076376,,,,,16.851400700048544,16.874108000076376,17.37764030008111,17.37764030008111,17.37764030008111,18.0379963000305,y,1,0.6528270000126213,None,,,,yashi,2024-12-01_14h36.00.627,solo_project,2024.1.5,None,2024-12-01 14h36.17.595689 +0530,
recile,ccrl,n,0,5,5,9,18.05923710006755,,,,,18.03924640000332,18.05923710006755,18.545624500024132,18.545624500024132,18.57655070000328,19.58546000008937,y,0,1.0314048000145704,None,,,,yashi,2024-12-01_14h36.00.627,solo_project,2024.1.5,None,2024-12-01 14h36.17.595689 +0530,
qualify  ,control,y,0,6,6,32,19.610653500072658,,,,,19.586858100024983,19.610653500072658,20.111515299999155,20.111515299999155,20.13087820005603,20.720820700051263,y,1,0.6025625999318436,None,,,,yashi,2024-12-01_14h36.00.627,solo_project,2024.1.5,None,2024-12-01 14h36.17.595689 +0530,
potugar,ccrl,n,0,7,7,35,20.7457877000561,,,,,20.722039000014775,20.7457877000561,21.246127200080082,21.246127200080082,21.26488470006734,22.17541800008621,n,1,0.9223092999309301,None,,,,yashi,2024-12-01_14h36.00.627,solo_project,2024.1.5,None,2024-12-01 14h36.17.595689 +0530,
helicage,ccrl,n,0,8,8,3,22.19711210008245,,,,,22.177085300092585,22.19711210008245,22.69763760000933,22.69763760000933,22.71683910000138,23.623534600017592,n,1,0.9040037000086159,None,,,,yashi,2024-12-01_14h36.00.627,solo_project,2024.1.5,None,2024-12-01 14h36.17.595689 +0530,
reconal,ccrl,n,0,9,9,23,23.648656400036998,,,,,23.624761800048873,23.648656400036998,24.1513068000786,24.1513068000786,24.1513068000786,25.10867840005085,n,1,0.9374278999166563,None,,,,yashi,2024-12-01_14h36.00.627,solo_project,2024.1.5,None,2024-12-01 14h36.17.595689 +0530,
quakity,ccrl,n,0,10,10,33,25.133646800066344,,,,,25.109932100051083,25.133646800066344,25.636740799993277,25.636740799993277,25.636740799993277,26.77700190001633,n,1,1.1181759000755847,None,,,,yashi,2024-12-01_14h36.00.627,solo_project,2024.1.5,None,2024-12-01 14h36.17.595689 +0530,
saline  ,control,y,0,11,11,38,26.8023106000619,,,,,26.7782392000081,26.8023106000619,27.305157100083306,27.305157100083306,27.305157100083306,28.114966200082563,y,1,0.8058561999350786,None,,,,yashi,2024-12-01_14h36.00.627,solo_project,2024.1.5,None,2024-12-01 14h36.17.595689 +0530,
consider  ,control,y,0,12,12,4,28.13713050005026,,,,,28.116197900031693,28.13713050005026,28.639948300085962,28.639948300085962,28.639948300085962,29.27955340000335,y,1,0.6179887999314815,None,,,,yashi,2024-12-01_14h36.00.627,solo_project,2024.1.5,None,2024-12-01 14h36.17.595689 +0530,
removal  ,control,y,0,13,13,22,29.30502390000038,,,,,29.28079250000883,29.30502390000038,29.791222000028938,29.791222000028938,29.82207350002136,30.316586900036782,y,1,0.511884200037457,None,,,,yashi,2024-12-01_14h36.00.627,solo_project,2024.1.5,None,2024-12-01 14h36.17.595689 +0530,
conbicer,ccrl,n,0,14,14,5,30.339197300025262,,,,,30.317798100062646,30.339197300025262,30.839838800020516,30.839838800020516,30.858998200041242,32.166175100021064,n,1,1.316747699980624,None,,,,yashi,2024-12-01_14h36.00.627,solo_project,2024.1.5,None,2024-12-01 14h36.17.595689 +0530,
dispute  ,control,y,0,15,15,26,32.19142010004725,,,,,32.16739200009033,32.19142010004725,32.693983100005426,32.693983100005426,32.693983100005426,33.284099200041965,y,1,0.5855126000242308,None,,,,yashi,2024-12-01_14h36.00.627,solo_project,2024.1.5,None,2024-12-01 14h36.17.595689 +0530,
bewoted,ccrl,n,0,16,16,21,33.309288300108165,,,,,33.28532130003441,33.309288300108165,33.80973910004832,33.80973910004832,33.82885550009087,34.905231500044465,n,1,1.0779216000810266,None,,,,yashi,2024-12-01_14h36.00.627,solo_project,2024.1.5,None,2024-12-01 14h36.17.595689 +0530,
coverage  ,control,y,0,17,17,30,34.92751800001133,,,,,34.90644680010155,34.92751800001133,35.413383300066926,35.413383300066926,35.42957500007469,36.05428690009285,y,1,0.6174536000471562,None,,,,yashi,2024-12-01_14h36.00.627,solo_project,2024.1.5,None,2024-12-01 14h36.17.595689 +0530,
military  ,control,y,0,18,18,28,36.07947720005177,,,,,36.05551520001609,36.07947720005177,36.57972040004097,36.57972040004097,36.598666900070384,37.255331900087185,y,1,0.6573484999826178,None,,,,yashi,2024-12-01_14h36.00.627,solo_project,2024.1.5,None,2024-12-01 14h36.17.595689 +0530,
repifion,ccrl,n,0,19,19,17,37.28021630004514,,,,,37.25657460000366,37.28021630004514,37.76501420000568,37.76501420000568,37.78194180002902,38.408945100032724,n,1,0.6424322999082506,None,,,,yashi,2024-12-01_14h36.00.627,solo_project,2024.1.5,None,2024-12-01 14h36.17.595689 +0530,
provide  ,control,y,0,20,20,24,38.431466500042006,,,,,38.41017740010284,38.431466500042006,38.93482160009444,38.93482160009444,38.93482160009444,39.44443370006047,y,1,0.49548979999963194,None,,,,yashi,2024-12-01_14h36.00.627,solo_project,2024.1.5,None,2024-12-01 14h36.17.595689 +0530,
disluge,ccrl,n,0,21,21,27,39.46582360006869,,,,,39.44605590007268,39.46582360006869,39.96873389999382,39.96873389999382,39.96873389999382,40.59445900004357,n,1,0.6117604000028223,None,,,,yashi,2024-12-01_14h36.00.627,solo_project,2024.1.5,None,2024-12-01 14h36.17.595689 +0530,
indicate  ,control,y,0,22,22,0,40.61703560000751,,,,,40.595560000045225,40.61703560000751,41.117772500030696,41.117772500030696,41.13700930005871,41.593604500056244,y,1,0.47228240000549704,None,,,,yashi,2024-12-01_14h36.00.627,solo_project,2024.1.5,None,2024-12-01 14h36.17.595689 +0530,
numerical  ,control,y,0,23,23,36,41.618482100078836,,,,,41.59482460003346,41.618482100078836,42.11883940000553,42.11883940000553,42.13754340005107,42.663523800089024,y,1,0.5293769999407232,None,,,,yashi,2024-12-01_14h36.00.627,solo_project,2024.1.5,None,2024-12-01 14h36.17.595689 +0530,
popular  ,control,y,0,24,24,34,42.687392899999395,,,,,42.664740700041875,42.687392899999395,43.18952520005405,43.18952520005405,43.18952520005405,43.62863340007607,y,1,0.42266680009197444,None,,,,yashi,2024-12-01_14h36.00.627,solo_project,2024.1.5,None,2024-12-01 14h36.17.595689 +0530,
policy  ,control,y,0,25,25,6,43.654058500076644,,,,,43.629852100042626,43.654058500076644,44.140176800079644,44.140176800079644,44.17108450003434,44.57994740002323,y,1,0.43308720004279166,None,,,,yashi,2024-12-01_14h36.00.627,solo_project,2024.1.5,None,2024-12-01 14h36.17.595689 +0530,
debate  ,control,y,0,26,26,12,44.60486300010234,,,,,44.58119150006678,44.60486300010234,45.10784010007046,45.10784010007046,45.10784010007046,45.597550600068644,y,1,0.47347219998482615,None,,,,yashi,2024-12-01_14h36.00.627,solo_project,2024.1.5,None,2024-12-01 14h36.17.595689 +0530,
denficy,ccrl,n,0,27,27,11,45.62260690005496,,,,,45.59876110008918,45.62260690005496,46.10826980008278,46.10826980008278,46.12571220006794,46.915720500051975,n,1,0.8032407999271527,None,,,,yashi,2024-12-01_14h36.00.627,solo_project,2024.1.5,None,2024-12-01 14h36.17.595689 +0530,
memory  ,control,y,0,28,28,14,46.940738500095904,,,,,46.91694260004442,46.940738500095904,47.4439762000693,47.4439762000693,47.4439762000693,47.85238290007692,y,1,0.3888452999526635,None,,,,yashi,2024-12-01_14h36.00.627,solo_project,2024.1.5,None,2024-12-01 14h36.17.595689 +0530,
posity,ccrl,n,0,29,29,7,47.875247000018135,,,,,47.85361340001691,47.875247000018135,48.37572570005432,48.37572570005432,48.39462630008347,48.78421900002286,y,0,0.39799650001805276,None,,,,yashi,2024-12-01_14h36.00.627,solo_project,2024.1.5,None,2024-12-01 14h36.17.595689 +0530,
cocewage,ccrl,n,0,30,30,31,48.8094623000361,,,,,48.78558770008385,48.8094623000361,49.31252040003892,49.31252040003892,49.31252040003892,50.18576140003279,n,1,0.848737100022845,None,,,,yashi,2024-12-01_14h36.00.627,solo_project,2024.1.5,None,2024-12-01 14h36.17.595689 +0530,
menowy,ccrl,n,0,31,31,15,50.2109903000528,,,,,50.18708600010723,50.2109903000528,50.711559000075795,50.711559000075795,50.73019610007759,51.43751509999856,n,1,0.708848400041461,None,,,,yashi,2024-12-01_14h36.00.627,solo_project,2024.1.5,None,2024-12-01 14h36.17.595689 +0530,
density  ,control,y,0,32,32,10,51.46239730005618,,,,,51.43876670009922,51.46239730005618,51.96296560007613,51.96296560007613,51.98246680002194,52.52191590005532,y,1,0.5496316999197006,None,,,,yashi,2024-12-01_14h36.00.627,solo_project,2024.1.5,None,2024-12-01 14h36.17.595689 +0530,
rabigly,ccrl,n,0,33,33,19,52.546914800070226,,,,,52.523374000098556,52.546914800070226,53.047490400029346,53.047490400029346,53.06619840010535,53.725701600080356,n,1,0.6615219000959769,None,,,,yashi,2024-12-01_14h36.00.627,solo_project,2024.1.5,None,2024-12-01 14h36.17.595689 +0530,
retire  ,control,y,0,34,34,8,53.74800330004655,,,,,53.72683590010274,53.74800330004655,54.25134650000837,54.25134650000837,54.25134650000837,54.740738500026055,y,1,0.4676952000008896,None,,,,yashi,2024-12-01_14h36.00.627,solo_project,2024.1.5,None,2024-12-01 14h36.17.595689 +0530,
mifikary,ccrl,n,0,35,35,29,54.76615200005472,,,,,54.74248270003591,54.76615200005472,55.26660220010672,55.26660220010672,55.28601180005353,55.92539880005643,n,1,0.6445583000313491,None,,,,yashi,2024-12-01_14h36.00.627,solo_project,2024.1.5,None,2024-12-01 14h36.17.595689 +0530,
heritage  ,control,y,0,36,36,2,55.950736200087704,,,,,55.92659879999701,55.950736200087704,56.45121110009495,56.45121110009495,56.469965400057845,56.979564400040545,y,1,0.5140871999319643,None,,,,yashi,2024-12-01_14h36.00.627,solo_project,2024.1.5,None,2024-12-01 14h36.17.595689 +0530,
nunewical,ccrl,n,0,37,37,37,57.00131190009415,,,,,56.98078620003071,57.00131190009415,57.488226500106975,57.488226500106975,57.51900230010506,58.19487350003328,n,1,0.6800939999520779,None,,,,yashi,2024-12-01_14h36.00.627,solo_project,2024.1.5,None,2024-12-01 14h36.17.595689 +0530,
insibate,ccrl,n,0,38,38,1,58.21978760010097,,,,,58.19611740007531,58.21978760010097,58.71997900004499,58.71997900004499,58.75352060003206,59.420655000023544,n,1,0.6807469000341371,None,,,,yashi,2024-12-01_14h36.00.627,solo_project,2024.1.5,None,2024-12-01 14h36.17.595689 +0530,
delahe,ccrl,n,0,39,39,13,59.455495100002736,,,,,59.423338500084355,59.455495100002736,59.93833480007015,59.93833480007015,59.957508900086395,60.49735690001398,n,1,0.5556624999735504,None,,,,yashi,2024-12-01_14h36.00.627,solo_project,2024.1.5,None,2024-12-01 14h36.17.595689 +0530,
,,,,,,,,,,,,,,,,,,,,,,60.498259100015275,60.522346100071445,65.51819840003736,yashi,2024-12-01_14h36.00.627,solo_project,2024.1.5,None,2024-12-01 14h36.17.595689 +0530,
