stimulus,condition,corr_resp,trials.thisRepN,trials.thisTrialN,trials.thisN,trials.thisIndex,thisRow.t,notes,instructions.started,text_2.started,instructions.stopped,trial.started,fixation.started,text.started,key_resp.started,fixation.stopped,trial.stopped,key_resp.keys,key_resp.corr,key_resp.rt,key_resp.duration,thank_you.started,text_3.started,thank_you.stopped,participant,date,expName,psychopyVersion,frameRate,expStart,
,,,,,,,,,0.014062799979001284,0.02949760004412383,10.01484459999483,,,,,,,,,,,,,,yashi,2024-12-01_14h34.07.584,solo_project,2024.1.5,None,2024-12-01 14h34.23.214581 +0530,
acidomy,vvrl,n,0,0,0,27,10.054870099993423,,,,,10.04485080006998,10.054870099993423,10.508035100065172,10.508035100065172,10.558369899983518,11.781715100049041,n,1,1.2530249999836087,None,,,,yashi,2024-12-01_14h34.07.584,solo_project,2024.1.5,None,2024-12-01 14h34.23.214581 +0530,
grotiful,vvrl,n,0,1,1,19,11.80730390001554,,,,,11.783790500019677,11.80730390001554,12.307848599972203,12.307848599972203,12.327248799963854,13.186442399979569,n,1,0.8732360999565572,None,,,,yashi,2024-12-01_14h34.07.584,solo_project,2024.1.5,None,2024-12-01 14h34.23.214581 +0530,
parent  ,control,y,0,2,2,24,13.207993400050327,,,,,13.18768790003378,13.207993400050327,13.69571260001976,13.69571260001976,13.726216300041415,14.505613900022581,y,1,0.8072867000009865,None,,,,yashi,2024-12-01_14h34.07.584,solo_project,2024.1.5,None,2024-12-01 14h34.23.214581 +0530,
animal  ,control,y,0,3,3,8,14.526973000029102,,,,,14.50689069996588,14.526973000029102,15.012866600067355,15.012866600067355,15.044216700014658,15.772672999999486,y,1,0.7493024000432342,None,,,,yashi,2024-12-01_14h34.07.584,solo_project,2024.1.5,None,2024-12-01 14h34.23.214581 +0530,
resident  ,control,y,0,4,4,2,15.794770700042136,,,,,15.77396719995886,15.794770700042136,16.295572299975902,16.295572299975902,16.31483849999495,17.25522659998387,y,1,0.9556105999508873,None,,,,yashi,2024-12-01_14h34.07.584,solo_project,2024.1.5,None,2024-12-01 14h34.23.214581 +0530,
basude,vvrl,n,0,5,5,5,17.279914299957454,,,,,17.256475000060163,17.279914299957454,17.7667885000119,17.7667885000119,17.79718180000782,18.704995600041002,n,1,0.9194670999422669,None,,,,yashi,2024-12-01_14h34.07.584,solo_project,2024.1.5,None,2024-12-01 14h34.23.214581 +0530,
editor  ,control,y,0,6,6,34,18.731505500036292,,,,,18.70614080002997,18.731505500036292,19.234191700001247,19.234191700001247,19.234191700001247,19.77431810006965,y,1,0.5201762999640778,None,,,,yashi,2024-12-01_14h34.07.584,solo_project,2024.1.5,None,2024-12-01 14h34.23.214581 +0530,
cimura,vvrl,n,0,7,7,7,19.799579399987124,,,,,19.775570500059985,19.799579399987124,20.300188799970783,20.300188799970783,20.319537300034426,21.459452099981718,n,1,1.1423520999960601,None,,,,yashi,2024-12-01_14h34.07.584,solo_project,2024.1.5,None,2024-12-01 14h34.23.214581 +0530,
anemol,vvrl,n,0,8,8,9,21.484649599995464,,,,,21.46076270006597,21.484649599995464,21.987665600026958,21.987665600026958,21.987665600026958,22.74620200006757,n,1,0.7390431000385433,None,,,,yashi,2024-12-01_14h34.07.584,solo_project,2024.1.5,None,2024-12-01 14h34.23.214581 +0530,
veteran  ,control,y,0,9,9,16,22.76838709996082,,,,,22.747406200040132,22.76838709996082,23.269854599959217,23.269854599959217,23.288577100029215,23.94788510003127,y,1,0.6689776000566781,None,,,,yashi,2024-12-01_14h34.07.584,solo_project,2024.1.5,None,2024-12-01 14h34.23.214581 +0530,
regular  ,control,y,0,10,10,12,23.970526800025254,,,,,23.949228800018318,23.970526800025254,24.456896999967285,24.456896999967285,24.487879600026645,24.996420999988914,y,1,0.5219638999551535,None,,,,yashi,2024-12-01_14h34.07.584,solo_project,2024.1.5,None,2024-12-01 14h34.23.214581 +0530,
opuritor,vvrl,n,0,11,11,23,25.022061299998313,,,,,24.99764449999202,25.022061299998313,25.522294600028545,25.522294600028545,25.540975200012326,26.16750320000574,n,1,0.6420659000286832,None,,,,yashi,2024-12-01_14h34.07.584,solo_project,2024.1.5,None,2024-12-01 14h34.23.214581 +0530,
grateful  ,control,y,0,12,12,18,26.189424499985762,,,,,26.168764000060037,26.189424499985762,26.676065900013782,26.676065900013782,26.70692639995832,27.18491399998311,y,1,0.4965616000117734,None,,,,yashi,2024-12-01_14h34.07.584,solo_project,2024.1.5,None,2024-12-01 14h34.23.214581 +0530,
capotel,vvrl,n,0,13,13,15,27.20744819997344,,,,,27.186145900050178,27.20744819997344,27.708075299975462,27.708075299975462,27.72738479997497,28.78753750002943,n,1,1.0737023999681696,None,,,,yashi,2024-12-01_14h34.07.584,solo_project,2024.1.5,None,2024-12-01 14h34.23.214581 +0530,
sontament,vvrl,n,0,14,14,39,28.809247100027278,,,,,28.78896849998273,28.809247100027278,29.31187360000331,29.31187360000331,29.31187360000331,30.388505600043572,n,1,1.0627935000229627,None,,,,yashi,2024-12-01_14h34.07.584,solo_project,2024.1.5,None,2024-12-01 14h34.23.214581 +0530,
edatur,vvrl,n,0,15,15,35,30.4107137999963,,,,,30.38990800001193,30.4107137999963,30.89739040005952,30.89739040005952,30.92796740005724,31.90669750003144,n,1,0.9975005000596866,None,,,,yashi,2024-12-01_14h34.07.584,solo_project,2024.1.5,None,2024-12-01 14h34.23.214581 +0530,
operator  ,control,y,0,16,16,22,31.92934170004446,,,,,31.907922000042163,31.92934170004446,32.43022740003653,32.43022740003653,32.44905379996635,33.03880520001985,y,1,0.6020111999241635,None,,,,yashi,2024-12-01_14h34.07.584,solo_project,2024.1.5,None,2024-12-01 14h34.23.214581 +0530,
cafeteria  ,control,y,0,17,17,10,33.06388919998426,,,,,33.040027800016105,33.06388919998426,33.56680729996879,33.56680729996879,33.56680729996879,34.12357299996074,y,1,0.5486182000022382,None,,,,yashi,2024-12-01_14h34.07.584,solo_project,2024.1.5,None,2024-12-01 14h34.23.214581 +0530,
camera  ,control,y,0,18,18,6,34.148443300044164,,,,,34.12482699996326,34.148443300044164,34.64885040000081,34.64885040000081,34.66799530002754,35.127203900017776,y,1,0.4658186000306159,None,,,,yashi,2024-12-01_14h34.07.584,solo_project,2024.1.5,None,2024-12-01 14h34.23.214581 +0530,
capital  ,control,y,0,19,19,14,35.14908780006226,,,,,35.12839329999406,35.14908780006226,35.64998009998817,35.64998009998817,35.66902000003029,36.194176899967715,y,1,0.5248096999712288,None,,,,yashi,2024-12-01_14h34.07.584,solo_project,2024.1.5,None,2024-12-01 14h34.23.214581 +0530,
porint,vvrl,n,0,20,20,25,36.21730620006565,,,,,36.195612799958326,36.21730620006565,36.71786510001402,36.71786510001402,36.737050399999134,37.39673929999117,n,1,0.6650345999514684,None,,,,yashi,2024-12-01_14h34.07.584,solo_project,2024.1.5,None,2024-12-01 14h34.23.214581 +0530,
veturin,vvrl,n,0,21,21,17,37.41894730005879,,,,,37.39800240006298,37.41894730005879,37.919358500046656,37.919358500046656,37.9382903999649,38.628185100038536,n,1,0.6877310000127181,None,,,,yashi,2024-12-01_14h34.07.584,solo_project,2024.1.5,None,2024-12-01 14h34.23.214581 +0530,
academy  ,control,y,0,22,22,26,38.65322169999126,,,,,38.62942050001584,38.65322169999126,39.13833220000379,39.13833220000379,39.15557699999772,39.82949879998341,y,1,0.6647567000472918,None,,,,yashi,2024-12-01_14h34.07.584,solo_project,2024.1.5,None,2024-12-01 14h34.23.214581 +0530,
elaborate  ,control,y,0,23,23,32,39.8547556999838,,,,,39.830758600030094,39.8547556999838,40.35520800005179,40.35520800005179,40.37427160004154,41.06652100000065,y,1,0.7049788000294939,None,,,,yashi,2024-12-01_14h34.07.584,solo_project,2024.1.5,None,2024-12-01 14h34.23.214581 +0530,
liborul,vvrl,n,0,24,24,37,41.08908890001476,,,,,41.0677775000222,41.08908890001476,41.58985400001984,41.58985400001984,41.608934900024906,42.31827940000221,n,1,0.7205967999761924,None,,,,yashi,2024-12-01_14h34.07.584,solo_project,2024.1.5,None,2024-12-01 14h34.23.214581 +0530,
modurite,vvrl,n,0,25,25,31,42.34064850001596,,,,,42.31961470004171,42.34064850001596,42.84140809997916,42.84140809997916,42.86066999996547,43.54895139997825,n,1,0.6781887999968603,None,,,,yashi,2024-12-01_14h34.07.584,solo_project,2024.1.5,None,2024-12-01 14h34.23.214581 +0530,
beside  ,control,y,0,26,26,4,43.575200099963695,,,,,43.54965549998451,43.575200099963695,44.07580900005996,44.07580900005996,44.09501479996834,44.685131300007924,y,1,0.6048222000245005,None,,,,yashi,2024-12-01_14h34.07.584,solo_project,2024.1.5,None,2024-12-01 14h34.23.214581 +0530,
benefit  ,control,y,0,27,27,20,44.71001040004194,,,,,44.68636349996086,44.71001040004194,45.210430999984965,45.210430999984965,45.22950240003411,46.16994839999825,y,1,0.95125729998108,None,,,,yashi,2024-12-01_14h34.07.584,solo_project,2024.1.5,None,2024-12-01 14h34.23.214581 +0530,
sentiment  ,control,y,0,28,28,38,46.195184999960475,,,,,46.171210000058636,46.195184999960475,46.695440000039525,46.695440000039525,46.71455639996566,47.30474299995694,y,1,0.5987546000396833,None,,,,yashi,2024-12-01_14h34.07.584,solo_project,2024.1.5,None,2024-12-01 14h34.23.214581 +0530,
cerdenal,vvrl,n,0,29,29,29,47.329404999967664,,,,,47.30618159996811,47.329404999967664,47.8300212000031,47.8300212000031,47.84880030003842,48.63924080005381,n,1,0.7949868000578135,None,,,,yashi,2024-12-01_14h34.07.584,solo_project,2024.1.5,None,2024-12-01 14h34.23.214581 +0530,
cifuteria,vvrl,n,0,30,30,11,48.66427800001111,,,,,48.64049919997342,48.66427800001111,49.1674680999713,49.1674680999713,49.1674680999713,49.70728940004483,n,1,0.5382953999796882,None,,,,yashi,2024-12-01_14h34.07.584,solo_project,2024.1.5,None,2024-12-01 14h34.23.214581 +0530,
capacity  ,control,y,0,31,31,0,49.732027500052936,,,,,49.70856509997975,49.732027500052936,50.21841229998972,50.21841229998972,50.24924490007106,51.10864380002022,y,1,0.8588096000021324,None,,,,yashi,2024-12-01_14h34.07.584,solo_project,2024.1.5,None,2024-12-01 14h34.23.214581 +0530,
moderate  ,control,y,0,32,32,30,51.13360239996109,,,,,51.10987439996097,51.13360239996109,51.63738700002432,51.63738700002432,51.63738700002432,52.24661490006838,y,1,0.58890039997641,None,,,,yashi,2024-12-01_14h34.07.584,solo_project,2024.1.5,None,2024-12-01 14h34.23.214581 +0530,
regolir,vvrl,n,0,33,33,13,52.267929399968125,,,,,52.248098699958064,52.267929399968125,52.76893560006283,52.76893560006283,52.791106799966656,53.41404890001286,n,1,0.6304441000102088,None,,,,yashi,2024-12-01_14h34.07.584,solo_project,2024.1.5,None,2024-12-01 14h34.23.214581 +0530,
eluberate,vvrl,n,0,34,34,33,53.43592029996216,,,,,53.415452799992636,53.43592029996216,53.936687399982475,53.936687399982475,53.955660499981605,54.62916829995811,n,1,0.6838157000020146,None,,,,yashi,2024-12-01_14h34.07.584,solo_project,2024.1.5,None,2024-12-01 14h34.23.214581 +0530,
liberal  ,control,y,0,35,35,36,54.654316600062884,,,,,54.630404800060205,54.654316600062884,55.15468130004592,55.15468130004592,55.1737482000608,55.96401210001204,y,1,0.7859072000719607,None,,,,yashi,2024-12-01_14h34.07.584,solo_project,2024.1.5,None,2024-12-01 14h34.23.214581 +0530,
cardinal  ,control,y,0,36,36,28,55.98893380002119,,,,,55.96525420004036,55.98893380002119,56.48941130004823,56.48941130004823,56.522849500062875,57.33584349998273,y,1,0.837441400042735,None,,,,yashi,2024-12-01_14h34.07.584,solo_project,2024.1.5,None,2024-12-01 14h34.23.214581 +0530,
capecoty,vvrl,n,0,37,37,1,57.35701649996918,,,,,57.33705500001088,57.35701649996918,57.84351080004126,57.84351080004126,57.87452139996458,58.533776200027205,n,1,0.666491899988614,None,,,,yashi,2024-12-01_14h34.07.584,solo_project,2024.1.5,None,2024-12-01 14h34.23.214581 +0530,
benafot,vvrl,n,0,38,38,21,58.55841739999596,,,,,58.53502950002439,58.55841739999596,59.05908470007125,59.05908470007125,59.0782078000484,59.71791879995726,n,1,0.6353722000494599,None,,,,yashi,2024-12-01_14h34.07.584,solo_project,2024.1.5,None,2024-12-01 14h34.23.214581 +0530,
resadunt,vvrl,n,0,39,39,3,59.74306410003919,,,,,59.71915550006088,59.74306410003919,60.246001000050455,60.246001000050455,60.246001000050455,60.81951000005938,n,1,0.556351299979724,None,,,,yashi,2024-12-01_14h34.07.584,solo_project,2024.1.5,None,2024-12-01 14h34.23.214581 +0530,
,,,,,,,,,,,,,,,,,,,,,,60.82040089997463,60.84454690001439,65.82333010004368,yashi,2024-12-01_14h34.07.584,solo_project,2024.1.5,None,2024-12-01 14h34.23.214581 +0530,
